index,accX,accY,accZ,HS,TO,HS_mark,TO_mark
0,-2.1959999999999997,-11.765,-1.569,0,0,,
1,-2.51,-10.353,-2.039,0,0,,
2,-2.353,-10.824000000000002,-2.51,0,0,,
3,-1.882,-10.667,-2.667,0,0,,
4,-1.412,-10.353,-2.824,0,0,,
5,-0.314,-9.725,-3.608,0,0,,
6,-0.47100000000000003,-9.097999999999999,-4.078,0,0,,
7,-0.784,-8.941,-4.078,0,0,,
8,0.0,-9.097999999999999,-4.078,0,0,,
9,0.0,-8.783999999999999,-4.5489999999999995,0,0,,
10,-0.784,-8.314,-4.706,0,0,,
11,-1.882,-8.314,-4.5489999999999995,0,0,,
12,-0.941,-9.097999999999999,-3.2939999999999996,0,0,,
13,-0.314,-9.255,-2.98,0,0,,
14,-1.412,-8.0,-3.451,0,0,,
15,-1.725,-8.157,-2.98,0,0,,
16,-0.627,-8.314,-1.412,0,0,,
17,-1.255,-7.843,-1.725,0,0,,
18,-1.882,-7.529,-1.412,0,0,,
19,-2.98,-7.843,-1.255,0,0,,
20,-2.51,-8.314,-0.941,0,0,,
21,-1.569,-8.157,-2.51,0,0,,
22,-2.51,-8.0,-3.137,0,0,,
23,-2.824,-8.471,-3.2939999999999996,0,0,,
24,-2.51,-8.783999999999999,-2.667,0,0,,
25,-2.039,-8.471,-3.608,0,0,,
26,-3.137,-8.314,-3.137,0,0,,
27,-3.608,-8.627,-2.824,0,0,,
28,-2.824,-9.255,-2.039,0,0,,
29,-2.039,-9.255,-2.039,0,0,,
30,-2.824,-9.412,-2.667,0,0,,
31,-3.2939999999999996,-9.725,-2.51,0,0,,
32,-1.412,-10.51,-2.824,0,0,,
33,-1.0979999999999999,-11.137,-2.98,0,0,,
34,-1.725,-11.450999999999999,-3.137,0,0,,
35,-2.353,-11.922,-2.51,0,0,,
36,-1.882,-11.765,-1.882,0,0,,
37,-2.039,-12.706,-0.627,0,0,,
38,-2.039,-13.647,0.47100000000000003,0,0,,
39,-0.941,-16.471,0.784,0,0,,
40,-0.627,-18.352999999999998,-0.47100000000000003,0,0,,
41,2.667,-20.235,-2.353,0,0,,
42,2.1959999999999997,-21.176,-3.2939999999999996,0,0,,
43,1.255,-21.176,-4.5489999999999995,0,0,,
44,3.137,-20.863000000000003,-4.235,0,0,,
45,2.98,-20.392,-3.451,0,0,,
46,4.078,-19.922,-8.0,0,1,,-30.0
47,4.3919999999999995,-20.392,-9.568999999999999,0,0,,
48,3.608,-21.647,-9.097999999999999,0,0,,
49,1.725,-20.863000000000003,-8.941,0,0,,
50,-0.47100000000000003,-20.235,-8.314,0,0,,
51,-4.5489999999999995,-14.588,-10.196,0,0,,
52,-4.3919999999999995,-12.078,-8.941,0,0,,
53,1.569,-8.783999999999999,-4.3919999999999995,0,0,,
54,2.353,-8.627,-5.647,0,0,,
55,8.627,-11.450999999999999,1.0979999999999999,0,0,,
56,9.725,-9.097999999999999,1.0979999999999999,0,0,,
57,10.196,-4.235,2.039,0,0,,
58,6.902,-2.1959999999999997,2.039,0,0,,
59,5.176,-0.941,2.1959999999999997,0,0,,
60,5.176,-0.941,1.882,0,0,,
61,5.647,-1.412,2.039,0,0,,
62,6.431,-2.824,2.039,0,0,,
63,6.117999999999999,-3.2939999999999996,2.1959999999999997,0,0,,
64,4.078,-3.9219999999999997,1.882,0,0,,
65,2.667,-4.235,0.784,0,0,,
66,2.1959999999999997,-4.863,0.627,0,0,,
67,2.667,-5.803999999999999,0.0,0,0,,
68,3.451,-6.745,-0.157,0,0,,
69,2.824,-8.157,-0.627,0,0,,
70,1.882,-9.097999999999999,-1.725,0,0,,
71,0.0,-10.039,-2.98,0,0,,
72,-0.784,-10.196,-3.9219999999999997,0,0,,
73,-1.882,-10.353,-5.332999999999999,0,0,,
74,-2.039,-10.98,-6.117999999999999,0,0,,
75,-2.353,-11.607999999999999,-6.431,0,0,,
76,-2.98,-14.118,-6.902,0,0,,
77,-3.765,-15.216,-6.902,0,0,,
78,-5.961,-17.412,-8.941,0,0,,
79,-7.216,-18.039,-9.725,0,0,,
80,-10.196,-18.824,-11.765,0,0,,
81,-12.863,-19.608,-13.804,0,0,,
82,-13.647,-19.922,-13.960999999999999,0,0,,
83,-13.333,-20.392,-13.647,0,0,,
84,-13.175999999999998,-20.392,-13.647,0,0,,
85,-13.02,-19.922,-13.49,0,0,,
86,-13.647,-19.608,-13.333,0,0,,
87,-15.216,-17.412,-13.804,0,0,,
88,-15.686,-15.373,-13.960999999999999,0,0,,
89,-16.941,-11.294,-15.373,0,0,,
90,-19.294,-7.843,-16.157,0,0,,
91,-20.549,-5.803999999999999,-15.686,0,0,,
92,-22.745,-4.235,-13.647,0,0,,
93,-22.901999999999997,-4.5489999999999995,-12.078,0,0,,
94,-20.549,-5.49,-10.353,0,0,,
95,-18.98,-5.647,-10.196,0,0,,
96,-15.373,-6.745,-10.039,0,0,,
97,-14.588,-7.216,-10.039,0,0,,
98,-13.02,-8.314,-9.568999999999999,0,0,,
99,-11.922,-8.783999999999999,-8.471,0,0,,
100,-10.196,-9.882,-8.157,0,0,,
101,8.471,-18.352999999999998,2.1959999999999997,0,0,,
102,21.961,-19.922,10.039,1,0,30.0,
103,50.667,-17.412,8.0,0,0,,
104,37.961,-13.647,3.765,0,0,,
105,-8.783999999999999,-9.412,0.314,0,0,,
106,-12.235,-11.765,-6.275,0,0,,
107,-4.078,-15.059000000000001,-7.372999999999999,0,0,,
108,-4.3919999999999995,-16.627,-5.647,0,0,,
109,-4.706,-11.765,-2.667,0,0,,
110,-0.314,-8.0,-1.882,0,0,,
111,4.3919999999999995,-5.332999999999999,-9.725,0,0,,
112,-3.9219999999999997,-8.314,-7.686,0,0,,
113,-5.647,-12.549000000000001,-4.3919999999999995,0,0,,
114,-1.0979999999999999,-13.647,-2.039,0,0,,
115,0.157,-8.941,-1.0979999999999999,0,0,,
116,1.0979999999999999,-8.471,-2.98,0,0,,
117,-0.47100000000000003,-9.725,-4.3919999999999995,0,0,,
118,-1.569,-10.039,-3.608,0,0,,
119,-1.725,-9.568999999999999,-2.039,0,0,,
120,-2.039,-8.627,-2.353,0,0,,
121,-1.412,-9.097999999999999,-3.2939999999999996,0,0,,
122,1.569,-10.353,-2.667,0,0,,
123,2.824,-10.353,-2.667,0,0,,
124,1.255,-10.196,-2.98,0,0,,
125,0.314,-10.353,-3.137,0,0,,
126,0.941,-10.353,-2.667,0,0,,
127,0.941,-9.882,-3.137,0,0,,
128,0.0,-8.314,-3.137,0,0,,
129,-0.47100000000000003,-8.157,-3.2939999999999996,0,0,,
130,1.412,-9.097999999999999,-3.137,0,0,,
131,1.725,-9.255,-3.765,0,0,,
132,0.784,-9.097999999999999,-3.9219999999999997,0,0,,
133,0.47100000000000003,-9.097999999999999,-3.451,0,0,,
134,1.412,-9.255,-2.824,0,0,,
135,0.941,-8.471,-3.2939999999999996,0,0,,
136,0.627,-8.627,-3.451,0,0,,
137,-0.157,-8.627,-3.608,0,0,,
138,1.255,-8.941,-2.824,0,0,,
139,1.255,-8.941,-3.2939999999999996,0,0,,
140,0.0,-8.627,-3.9219999999999997,0,0,,
141,0.314,-8.783999999999999,-3.2939999999999996,0,0,,
142,1.725,-8.627,-3.2939999999999996,0,0,,
143,1.255,-8.471,-3.765,0,0,,
144,0.314,-8.627,-4.706,0,0,,
145,0.627,-8.783999999999999,-4.3919999999999995,0,0,,
146,0.784,-9.097999999999999,-3.608,0,0,,
147,-0.157,-8.941,-3.451,0,0,,
148,-1.412,-8.627,-3.451,0,0,,
149,-0.157,-9.412,-2.667,0,0,,
150,-0.157,-9.568999999999999,-2.1959999999999997,0,0,,
151,0.0,-9.255,-3.137,0,0,,
152,-0.314,-9.097999999999999,-3.2939999999999996,0,0,,
153,-0.784,-9.568999999999999,-3.2939999999999996,0,0,,
154,-0.314,-10.039,-2.824,0,0,,
155,-0.157,-9.568999999999999,-3.608,0,0,,
156,-0.784,-9.882,-4.235,0,0,,
157,-0.784,-10.353,-4.078,0,0,,
158,0.47100000000000003,-10.667,-4.235,0,0,,
159,-0.314,-10.51,-4.5489999999999995,0,0,,
160,-2.039,-10.51,-4.5489999999999995,0,0,,
161,-1.882,-10.98,-3.608,0,0,,
162,-0.627,-11.294,-3.9219999999999997,0,0,,
163,-2.51,-10.98,-4.235,0,0,,
164,-2.667,-11.450999999999999,-4.235,0,0,,
165,-2.1959999999999997,-12.235,-3.608,0,0,,
166,-1.882,-12.078,-4.235,0,0,,
167,-3.137,-12.549000000000001,-4.3919999999999995,0,0,,
168,-3.2939999999999996,-12.863,-4.078,0,0,,
169,-2.98,-13.49,-2.98,0,0,,
170,-2.1959999999999997,-13.333,-2.824,0,0,,
171,-2.824,-13.647,-2.353,0,0,,
172,-2.1959999999999997,-14.745,-1.0979999999999999,0,0,,
173,-0.47100000000000003,-15.686,-0.314,0,0,,
174,-0.157,-16.0,-1.569,0,0,,
175,0.157,-15.843,-0.941,0,0,,
176,0.314,-16.784000000000002,-0.627,0,0,,
177,0.941,-17.255,-0.314,0,0,,
178,1.882,-17.098,-0.941,0,0,,
179,1.0979999999999999,-17.098,-2.667,0,0,,
180,1.569,-17.255,-2.824,0,0,,
181,2.98,-17.412,-3.765,0,0,,
182,4.078,-17.569000000000003,-4.078,0,1,,-30.0
183,4.863,-18.352999999999998,-4.863,0,0,,
184,4.863,-18.51,-5.49,0,0,,
185,4.078,-18.195999999999998,-4.078,0,0,,
186,2.1959999999999997,-17.882,-3.608,0,0,,
187,2.039,-15.373,-7.529,0,0,,
188,-0.941,-12.706,-9.412,0,0,,
189,-1.412,-12.235,-8.941,0,0,,
190,0.157,-8.783999999999999,-10.039,0,0,,
191,2.353,-5.961,-9.568999999999999,0,0,,
192,1.882,-7.059,-6.275,0,0,,
193,3.2939999999999996,-9.097999999999999,-1.882,0,0,,
194,7.843,-8.157,-0.157,0,0,,
195,8.471,-4.3919999999999995,0.47100000000000003,0,0,,
196,8.0,-3.451,0.47100000000000003,0,0,,
197,5.647,-2.824,0.314,0,0,,
198,4.5489999999999995,-2.1959999999999997,0.0,0,0,,
199,4.078,-1.569,-0.314,0,0,,
200,4.3919999999999995,-1.569,-0.157,0,0,,
201,3.9219999999999997,-2.824,-0.47100000000000003,0,0,,
202,3.608,-3.2939999999999996,-0.47100000000000003,0,0,,
203,2.353,-3.608,-0.47100000000000003,0,0,,
204,1.882,-3.9219999999999997,-0.627,0,0,,
205,1.725,-4.235,-0.627,0,0,,
206,2.51,-4.863,-0.941,0,0,,
207,2.667,-5.332999999999999,-1.255,0,0,,
208,2.667,-6.275,-1.882,0,0,,
209,2.667,-7.059,-2.353,0,0,,
210,1.412,-8.314,-3.608,0,0,,
211,0.941,-9.412,-5.647,0,0,,
212,0.47100000000000003,-9.882,-6.431,0,0,,
213,0.157,-10.824000000000002,-7.686,0,0,,
214,0.0,-11.607999999999999,-8.157,0,0,,
215,-1.255,-13.175999999999998,-8.471,0,0,,
216,-1.882,-13.960999999999999,-8.471,0,0,,
217,-4.078,-16.314,-9.412,0,0,,
218,-4.863,-17.255,-10.353,0,0,,
219,-8.314,-18.352999999999998,-12.706,0,0,,
220,-11.450999999999999,-18.824,-13.804,0,0,,
221,-13.49,-19.137,-13.960999999999999,0,0,,
222,-14.902000000000001,-19.765,-13.804,0,0,,
223,-14.745,-19.765,-13.333,0,0,,
224,-14.588,-19.294,-12.863,0,0,,
225,-14.745,-18.98,-12.235,0,0,,
226,-15.843,-17.412,-12.078,0,0,,
227,-16.314,-15.373,-12.549000000000001,0,0,,
228,-18.667,-11.294,-14.745,0,0,,
229,-21.333000000000002,-7.216,-16.941,0,0,,
230,-22.745,-4.863,-17.098,0,0,,
231,-25.412,-2.98,-13.960999999999999,0,0,,
232,-25.569000000000003,-3.765,-12.392000000000001,0,0,,
233,-22.430999999999997,-5.647,-9.725,0,0,,
234,-20.549,-6.431,-9.568999999999999,0,0,,
235,-18.667,-7.529,-9.725,0,0,,
236,-10.51,-10.824000000000002,-10.353,0,0,,
237,3.9219999999999997,-14.902000000000001,-3.9219999999999997,1,0,30.0,
238,40.314,-18.98,3.451,0,0,,
239,52.391999999999996,-20.078,3.451,0,0,,
240,6.745,-14.902000000000001,3.608,0,0,,
241,-14.588,-10.667,2.039,0,0,,
242,-3.137,-12.549000000000001,-2.98,0,0,,
243,-1.255,-15.529000000000002,-4.235,0,0,,
244,-4.078,-14.118,-3.137,0,0,,
245,-1.882,-7.529,0.314,0,0,,
246,-0.157,-7.843,0.784,0,0,,
247,2.353,-7.216,-9.725,0,0,,
248,-1.255,-9.882,-8.941,0,0,,
249,-2.98,-14.588,-4.706,0,0,,
250,-0.47100000000000003,-16.471,-2.353,0,0,,
251,-0.784,-11.137,-0.314,0,0,,
252,0.47100000000000003,-7.843,-3.137,0,0,,
253,-0.157,-7.843,-4.235,0,0,,
254,-2.353,-8.0,-3.765,0,0,,
255,-2.039,-8.157,-3.137,0,0,,
256,2.039,-8.627,-2.667,0,0,,
257,2.353,-9.255,-2.667,0,0,,
258,1.569,-9.568999999999999,-2.98,0,0,,
259,2.039,-9.882,-2.353,0,0,,
260,2.98,-9.725,-2.353,0,0,,
261,1.725,-9.725,-3.137,0,0,,
262,0.47100000000000003,-10.039,-4.078,0,0,,
263,-0.157,-9.412,-2.667,0,0,,
264,0.941,-9.097999999999999,-2.824,0,0,,
265,1.255,-8.627,-3.608,0,0,,
266,0.627,-8.941,-3.608,0,0,,
267,1.412,-9.725,-2.667,0,0,,
268,1.882,-9.725,-2.353,0,0,,
269,1.255,-9.568999999999999,-2.667,0,0,,
270,-0.157,-9.255,-2.667,0,0,,
271,0.784,-9.568999999999999,-2.51,0,0,,
272,0.941,-8.783999999999999,-3.2939999999999996,0,0,,
273,0.314,-8.783999999999999,-3.608,0,0,,
274,-0.47100000000000003,-9.255,-3.451,0,0,,
275,0.47100000000000003,-9.568999999999999,-3.137,0,0,,
276,1.0979999999999999,-8.627,-3.9219999999999997,0,0,,
277,0.0,-8.471,-4.235,0,0,,
278,-0.314,-8.471,-4.078,0,0,,
279,1.882,-8.941,-3.608,0,0,,
280,1.882,-8.783999999999999,-4.706,0,0,,
281,0.314,-8.627,-4.235,0,0,,
282,0.157,-8.941,-4.078,0,0,,
283,1.569,-8.941,-3.451,0,0,,
284,1.569,-8.627,-3.608,0,0,,
285,-0.627,-8.157,-4.5489999999999995,0,0,,
286,-2.824,-9.255,-3.137,0,0,,
287,-2.51,-9.882,-2.98,0,0,,
288,-2.039,-9.882,-2.98,0,0,,
289,-2.824,-9.568999999999999,-3.2939999999999996,0,0,,
290,-2.667,-9.725,-2.353,0,0,,
291,-1.412,-9.882,-1.882,0,0,,
292,-0.627,-9.568999999999999,-2.039,0,0,,
293,-2.039,-9.255,-2.667,0,0,,
294,-2.1959999999999997,-9.725,-2.1959999999999997,0,0,,
295,-0.314,-10.039,-2.98,0,0,,
296,-0.47100000000000003,-10.196,-3.608,0,0,,
297,-0.784,-10.353,-5.176,0,0,,
298,-0.314,-10.824000000000002,-4.863,0,0,,
299,0.0,-11.450999999999999,-4.706,0,0,,
300,-0.314,-10.824000000000002,-5.02,0,0,,
301,-2.1959999999999997,-10.667,-4.078,0,0,,
302,-1.569,-11.607999999999999,-2.667,0,0,,
303,-0.941,-11.922,-2.667,0,0,,
304,-1.569,-12.078,-4.078,0,0,,
305,-2.1959999999999997,-11.922,-4.235,0,0,,
306,-2.039,-13.333,-3.608,0,0,,
307,-1.569,-13.960999999999999,-3.2939999999999996,0,0,,
308,-2.1959999999999997,-14.431,-3.608,0,0,,
309,-2.039,-15.843,-2.1959999999999997,0,0,,
310,-1.569,-15.843,-1.725,0,0,,
311,-0.47100000000000003,-16.314,-0.941,0,0,,
312,-0.627,-17.098,-0.784,0,0,,
313,-0.157,-18.039,0.0,0,0,,
314,0.314,-18.51,0.47100000000000003,0,0,,
315,2.039,-18.824,-0.47100000000000003,0,0,,
316,1.882,-18.824,-1.255,0,0,,
317,1.725,-18.039,-2.98,0,0,,
318,0.784,-18.195999999999998,-3.2939999999999996,0,0,,
319,1.0979999999999999,-18.98,-2.98,0,0,,
320,5.332999999999999,-18.039,-6.902,0,1,,-30.0
321,6.587999999999999,-18.195999999999998,-7.216,0,0,,
322,5.176,-18.51,-4.3919999999999995,0,0,,
323,3.451,-17.255,-3.2939999999999996,0,0,,
324,3.137,-15.059000000000001,-5.803999999999999,0,0,,
325,0.0,-12.863,-7.843,0,0,,
326,-1.882,-11.765,-7.372999999999999,0,0,,
327,0.314,-8.627,-8.471,0,0,,
328,2.1959999999999997,-6.431,-7.216,0,0,,
329,-0.314,-5.961,-6.275,0,0,,
330,0.627,-7.529,-3.2939999999999996,0,0,,
331,6.117999999999999,-7.686,-1.255,0,0,,
332,7.059,-5.961,-0.47100000000000003,0,0,,
333,5.961,-3.451,0.314,0,0,,
334,3.9219999999999997,-2.51,0.0,0,0,,
335,3.608,-2.1959999999999997,-0.314,0,0,,
336,2.824,-1.569,-0.314,0,0,,
337,3.137,-1.725,-0.314,0,0,,
338,2.98,-2.353,-0.627,0,0,,
339,2.667,-2.51,-0.627,0,0,,
340,2.1959999999999997,-3.137,-0.157,0,0,,
341,1.725,-3.2939999999999996,-0.314,0,0,,
342,1.569,-3.608,-0.157,0,0,,
343,1.569,-4.078,-0.314,0,0,,
344,1.569,-4.706,-0.47100000000000003,0,0,,
345,2.1959999999999997,-5.49,-0.784,0,0,,
346,2.039,-5.961,-1.412,0,0,,
347,1.725,-7.216,-2.353,0,0,,
348,1.412,-8.0,-2.824,0,0,,
349,1.0979999999999999,-9.255,-3.765,0,0,,
350,0.784,-10.667,-4.5489999999999995,0,0,,
351,0.314,-11.450999999999999,-5.332999999999999,0,0,,
352,-0.941,-13.333,-6.275,0,0,,
353,-1.569,-14.275,-6.587999999999999,0,0,,
354,-2.667,-16.471,-7.372999999999999,0,0,,
355,-3.9219999999999997,-17.098,-7.843,0,0,,
356,-6.745,-19.137,-9.568999999999999,0,0,,
357,-8.627,-19.608,-10.51,0,0,,
358,-11.922,-20.706,-11.137,0,0,,
359,-15.373,-21.804000000000002,-12.078,0,0,,
360,-15.373,-21.961,-12.863,0,0,,
361,-15.059000000000001,-21.333000000000002,-14.275,0,0,,
362,-14.902000000000001,-20.549,-14.745,0,0,,
363,-14.275,-18.98,-16.157,0,0,,
364,-14.745,-16.627,-17.725,0,0,,
365,-18.98,-10.039,-21.333000000000002,0,0,,
366,-24.941,-4.706,-21.804000000000002,0,0,,
367,-28.392,-2.039,-20.549,0,0,,
368,-32.784,0.314,-17.569000000000003,0,0,,
369,-31.843000000000004,-0.47100000000000003,-15.686,0,0,,
370,-24.314,-3.2939999999999996,-13.804,0,0,,
371,-20.235,-4.706,-13.02,0,0,,
372,-14.431,-7.529,-14.745,0,0,,
373,-2.039,-11.450999999999999,-7.529,1,0,30.0,
374,37.804,-18.98,0.47100000000000003,0,0,,
375,54.118,-21.647,0.784,0,0,,
376,20.078,-19.608,-1.725,0,0,,
377,-21.647,-8.0,-6.275,0,0,,
378,-3.451,-11.137,0.0,0,0,,
379,-6.275,-17.725,-2.98,0,0,,
380,-8.627,-14.275,-1.725,0,0,,
381,-5.49,-5.647,1.569,0,0,,
382,1.412,-5.02,-6.587999999999999,0,0,,
383,-6.275,-6.431,-9.412,0,0,,
384,-7.059,-13.960999999999999,-5.961,0,0,,
385,-5.49,-15.216,-4.863,0,0,,
386,-2.98,-13.49,-0.627,0,0,,
387,-2.667,-10.51,-2.98,0,0,,
388,-0.47100000000000003,-9.568999999999999,-2.98,0,0,,
389,1.412,-9.725,-3.2939999999999996,0,0,,
390,-0.784,-8.0,-3.451,0,0,,
391,-1.0979999999999999,-7.686,-3.9219999999999997,0,0,,
392,-0.627,-8.941,-3.608,0,0,,
393,0.784,-10.039,-2.98,0,0,,
394,0.941,-9.725,-3.137,0,0,,
395,0.941,-10.039,-3.137,0,0,,
396,0.47100000000000003,-10.196,-3.765,0,0,,
397,1.882,-10.667,-3.608,0,0,,
398,1.255,-9.412,-3.608,0,0,,
399,-0.314,-8.941,-4.078,0,0,,
400,-0.627,-9.255,-2.353,0,0,,
401,-0.314,-8.627,-3.137,0,0,,
402,-0.314,-9.097999999999999,-3.2939999999999996,0,0,,
403,-0.47100000000000003,-9.255,-4.078,0,0,,
404,0.627,-9.725,-3.2939999999999996,0,0,,
405,1.0979999999999999,-9.725,-2.98,0,0,,
406,0.314,-8.627,-3.9219999999999997,0,0,,
407,0.0,-9.568999999999999,-3.765,0,0,,
408,0.0,-9.725,-2.824,0,0,,
409,0.0,-9.255,-3.451,0,0,,
410,-0.47100000000000003,-9.255,-3.608,0,0,,
411,-0.941,-8.471,-4.5489999999999995,0,0,,
412,-0.157,-9.097999999999999,-3.451,0,0,,
413,1.255,-8.783999999999999,-4.235,0,0,,
414,1.0979999999999999,-8.627,-4.706,0,0,,
415,0.0,-8.941,-5.02,0,0,,
416,0.157,-10.196,-2.667,0,0,,
417,0.157,-10.196,-2.824,0,0,,
418,-0.784,-9.412,-3.608,0,0,,
419,-1.412,-9.255,-3.137,0,0,,
420,-0.784,-9.412,-2.1959999999999997,0,0,,
421,0.0,-9.725,-2.039,0,0,,
422,-0.47100000000000003,-9.097999999999999,-3.608,0,0,,
423,-1.0979999999999999,-9.412,-2.824,0,0,,
424,-0.314,-9.725,-2.51,0,0,,
425,-0.157,-8.941,-3.608,0,0,,
426,-0.784,-8.471,-3.765,0,0,,
427,-0.784,-8.783999999999999,-2.667,0,0,,
428,-0.47100000000000003,-9.097999999999999,-1.882,0,0,,
429,-0.157,-9.097999999999999,-3.765,0,0,,
430,-0.941,-9.412,-4.078,0,0,,
431,-0.941,-10.196,-3.765,0,0,,
432,0.314,-10.98,-3.9219999999999997,0,0,,
433,0.0,-10.51,-4.863,0,0,,
434,-1.0979999999999999,-10.51,-4.863,0,0,,
435,-1.569,-10.51,-4.3919999999999995,0,0,,
436,-1.0979999999999999,-10.98,-3.2939999999999996,0,0,,
437,-1.569,-10.98,-3.765,0,0,,
438,-2.824,-10.824000000000002,-3.608,0,0,,
439,-2.824,-11.607999999999999,-3.2939999999999996,0,0,,
440,-2.353,-11.922,-3.137,0,0,,
441,-2.824,-12.235,-3.9219999999999997,0,0,,
442,-3.2939999999999996,-12.706,-4.078,0,0,,
443,-3.137,-13.804,-2.51,0,0,,
444,-2.667,-14.431,-1.725,0,0,,
445,-2.51,-14.431,-1.725,0,0,,
446,-2.51,-14.745,-1.569,0,0,,
447,-1.725,-16.627,-0.157,0,0,,
448,-0.627,-17.569000000000003,0.627,0,0,,
449,-0.47100000000000003,-18.039,0.47100000000000003,0,0,,
450,-0.157,-18.98,0.314,0,0,,
451,0.784,-19.294,0.0,0,0,,
452,1.882,-17.882,-2.98,0,0,,
453,3.137,-17.098,-4.706,0,0,,
454,1.0979999999999999,-18.352999999999998,-3.451,0,1,,-30.0
455,1.725,-18.667,-5.332999999999999,0,0,,
456,2.98,-18.195999999999998,-6.117999999999999,0,0,,
457,2.1959999999999997,-18.352999999999998,-4.863,0,0,,
458,2.039,-17.725,-5.332999999999999,0,0,,
459,2.824,-15.373,-7.686,0,0,,
460,1.725,-14.275,-8.314,0,0,,
461,0.0,-11.294,-7.843,0,0,,
462,0.0,-10.196,-7.843,0,0,,
463,4.235,-5.647,-8.783999999999999,0,0,,
464,-2.039,-5.961,-6.431,0,0,,
465,-0.157,-7.216,-3.608,0,0,,
466,4.235,-6.431,-1.569,0,0,,
467,5.332999999999999,-5.02,-1.255,0,0,,
468,5.332999999999999,-2.98,-0.47100000000000003,0,0,,
469,4.706,-2.667,-0.47100000000000003,0,0,,
470,3.608,-1.882,-0.314,0,0,,
471,2.824,-1.412,-0.47100000000000003,0,0,,
472,2.1959999999999997,-1.569,-0.47100000000000003,0,0,,
473,1.882,-2.039,-0.157,0,0,,
474,1.725,-2.039,-0.314,0,0,,
475,0.941,-2.353,-0.314,0,0,,
476,0.784,-2.667,-0.157,0,0,,
477,0.941,-3.451,-0.314,0,0,,
478,0.941,-3.608,-0.314,0,0,,
479,1.255,-4.078,-0.627,0,0,,
480,1.569,-5.02,-1.0979999999999999,0,0,,
481,1.725,-5.49,-1.569,0,0,,
482,1.412,-6.117999999999999,-2.51,0,0,,
483,1.412,-6.745,-3.137,0,0,,
484,1.0979999999999999,-7.843,-4.5489999999999995,0,0,,
485,0.941,-8.157,-4.706,0,0,,
486,0.784,-9.255,-5.803999999999999,0,0,,
487,0.314,-9.882,-6.431,0,0,,
488,-0.627,-11.450999999999999,-6.745,0,0,,
489,-2.039,-13.804,-6.902,0,0,,
490,-2.824,-15.216,-7.372999999999999,0,0,,
491,-5.332999999999999,-17.255,-9.097999999999999,0,0,,
492,-7.372999999999999,-17.882,-10.51,0,0,,
493,-10.353,-18.195999999999998,-14.118,0,0,,
494,-11.607999999999999,-17.882,-15.216,0,0,,
495,-11.450999999999999,-18.039,-16.0,0,0,,
496,-12.863,-18.51,-14.902000000000001,0,0,,
497,-13.175999999999998,-18.352999999999998,-14.118,0,0,,
498,-13.49,-17.725,-13.02,0,0,,
499,-13.804,-17.255,-12.392000000000001,0,0,,
500,-14.588,-16.0,-11.922,0,0,,
501,-15.216,-14.745,-11.765,0,0,,
502,-16.627,-11.450999999999999,-14.431,0,0,,
503,-18.352999999999998,-9.725,-16.471,0,0,,
504,-22.275,-4.706,-15.843,0,0,,
505,-25.725,-2.98,-11.765,0,0,,
506,-25.569000000000003,-3.2939999999999996,-10.039,0,0,,
507,-19.608,-7.216,-9.412,0,0,,
508,-18.352999999999998,-7.372999999999999,-8.941,0,0,,
509,-7.059,-9.255,-6.275,0,0,,
510,8.314,-13.804,-1.255,1,0,30.0,
511,38.902,-19.608,2.824,0,0,,
512,14.745,-19.137,-2.51,0,0,,
513,-4.078,-14.588,-5.176,0,0,,
514,-1.255,-10.824000000000002,-0.784,0,0,,
515,3.2939999999999996,-12.549000000000001,-1.882,0,0,,
516,-1.255,-10.667,-4.706,0,0,,
517,-2.667,-7.372999999999999,-3.608,0,0,,
518,-1.882,-8.471,-2.824,0,0,,
519,-0.157,-10.039,-5.176,0,0,,
520,-4.706,-11.607999999999999,-4.5489999999999995,0,0,,
521,-4.235,-13.175999999999998,-2.51,0,0,,
522,-2.039,-13.02,-2.1959999999999997,0,0,,
523,-0.47100000000000003,-10.824000000000002,-0.941,0,0,,
524,-0.941,-9.725,-2.51,0,0,,
525,-1.255,-8.941,-4.3919999999999995,0,0,,
526,-0.941,-9.568999999999999,-3.9219999999999997,0,0,,
527,-0.157,-9.568999999999999,-3.765,0,0,,
528,0.627,-8.783999999999999,-3.451,0,0,,
529,1.569,-8.471,-3.2939999999999996,0,0,,
530,3.451,-9.725,-1.725,0,0,,
531,3.9219999999999997,-9.725,-1.725,0,0,,
532,3.765,-9.725,-2.039,0,0,,
533,3.2939999999999996,-9.412,-1.725,0,0,,
534,4.3919999999999995,-9.725,-0.784,0,0,,
535,3.765,-9.412,-1.0979999999999999,0,0,,
536,2.98,-8.627,-2.98,0,0,,
537,2.353,-8.471,-3.137,0,0,,
538,3.451,-8.941,-2.667,0,0,,
539,3.9219999999999997,-8.471,-2.98,0,0,,
540,3.451,-8.627,-3.137,0,0,,
541,1.569,-9.412,-2.51,0,0,,
542,1.882,-9.882,-1.725,0,0,,
543,0.784,-9.568999999999999,-2.353,0,0,,
544,0.47100000000000003,-9.097999999999999,-3.137,0,0,,
545,0.157,-9.255,-2.667,0,0,,
546,1.882,-9.725,-3.2939999999999996,0,0,,
547,1.0979999999999999,-9.255,-3.608,0,0,,
548,-0.157,-8.941,-3.9219999999999997,0,0,,
549,0.314,-9.255,-3.765,0,0,,
550,1.0979999999999999,-9.255,-3.608,0,0,,
551,0.47100000000000003,-9.097999999999999,-3.608,0,0,,
552,-0.314,-8.627,-4.235,0,0,,
553,0.0,-9.568999999999999,-2.98,0,0,,
554,0.784,-9.412,-3.451,0,0,,
555,0.47100000000000003,-8.783999999999999,-5.176,0,0,,
556,0.157,-8.471,-5.332999999999999,0,0,,
557,0.157,-9.882,-3.608,0,0,,
558,0.157,-10.353,-2.98,0,0,,
559,-0.784,-9.568999999999999,-4.3919999999999995,0,0,,
560,-1.0979999999999999,-9.725,-4.3919999999999995,0,0,,
561,-1.0979999999999999,-9.882,-2.667,0,0,,
562,0.157,-9.725,-2.353,0,0,,
563,-0.47100000000000003,-9.097999999999999,-2.824,0,0,,
564,-1.569,-8.941,-2.353,0,0,,
565,-0.784,-9.412,-1.569,0,0,,
566,0.157,-9.882,-2.667,0,0,,
567,-0.314,-9.568999999999999,-2.98,0,0,,
568,-1.0979999999999999,-9.725,-3.765,0,0,,
569,0.0,-10.824000000000002,-3.2939999999999996,0,0,,
570,0.157,-10.824000000000002,-4.235,0,0,,
571,-0.784,-10.353,-5.332999999999999,0,0,,
572,-1.569,-10.353,-4.3919999999999995,0,0,,
573,-0.941,-10.824000000000002,-3.451,0,0,,
574,-0.627,-10.667,-3.451,0,0,,
575,-1.725,-10.824000000000002,-4.078,0,0,,
576,-2.353,-11.294,-3.9219999999999997,0,0,,
577,-2.51,-12.078,-3.451,0,0,,
578,-2.353,-12.078,-4.235,0,0,,
579,-2.1959999999999997,-12.392000000000001,-4.3919999999999995,0,0,,
580,-3.137,-13.960999999999999,-2.98,0,0,,
581,-2.353,-15.373,-1.569,0,0,,
582,-1.0979999999999999,-15.373,-2.98,0,0,,
583,-1.0979999999999999,-16.0,-2.353,0,0,,
584,-1.412,-17.882,-0.784,0,0,,
585,0.157,-18.667,0.157,0,0,,
586,0.627,-19.137,0.47100000000000003,0,0,,
587,2.353,-19.608,-0.314,0,0,,
588,2.824,-19.451,-0.627,0,0,,
589,3.137,-18.039,-2.824,0,0,,
590,3.451,-17.725,-4.078,0,0,,
591,0.157,-18.667,-3.451,0,1,,-30.0
592,0.0,-18.667,-5.02,0,0,,
593,1.569,-18.195999999999998,-5.961,0,0,,
594,0.0,-18.039,-4.706,0,0,,
595,0.47100000000000003,-17.412,-6.117999999999999,0,0,,
596,0.0,-15.059000000000001,-8.314,0,0,,
597,-1.0979999999999999,-13.647,-8.157,0,0,,
598,0.0,-11.450999999999999,-7.843,0,0,,
599,2.51,-8.783999999999999,-9.725,0,0,,
600,1.725,-5.961,-9.097999999999999,0,0,,
601,1.255,-8.627,-3.137,0,0,,
602,3.9219999999999997,-9.255,-1.725,0,0,,
603,6.431,-6.117999999999999,-0.47100000000000003,0,0,,
604,6.587999999999999,-4.863,0.314,0,0,,
605,5.647,-3.765,0.157,0,0,,
606,4.5489999999999995,-3.137,-0.157,0,0,,
607,3.137,-2.1959999999999997,-0.314,0,0,,
608,3.2939999999999996,-1.725,-0.314,0,0,,
609,3.608,-2.039,-0.47100000000000003,0,0,,
610,2.98,-2.1959999999999997,-0.314,0,0,,
611,2.51,-2.51,-0.314,0,0,,
612,2.039,-2.667,-0.627,0,0,,
613,1.882,-3.137,-0.784,0,0,,
614,2.039,-3.2939999999999996,-1.255,0,0,,
615,2.039,-3.608,-1.412,0,0,,
616,2.1959999999999997,-3.9219999999999997,-1.882,0,0,,
617,2.1959999999999997,-4.3919999999999995,-2.51,0,0,,
618,2.039,-4.706,-2.824,0,0,,
619,2.039,-5.803999999999999,-3.765,0,0,,
620,2.039,-6.275,-4.3919999999999995,0,0,,
621,1.412,-7.529,-5.332999999999999,0,0,,
622,1.0979999999999999,-7.843,-5.961,0,0,,
623,0.47100000000000003,-8.941,-7.216,0,0,,
624,0.314,-9.568999999999999,-7.686,0,0,,
625,-0.157,-11.137,-8.314,0,0,,
626,-1.725,-13.647,-8.783999999999999,0,0,,
627,-2.353,-14.902000000000001,-9.097999999999999,0,0,,
628,-4.5489999999999995,-16.941,-10.667,0,0,,
629,-5.803999999999999,-18.039,-11.922,0,0,,
630,-9.412,-18.98,-15.059000000000001,0,0,,
631,-10.667,-19.137,-16.157,0,0,,
632,-11.922,-19.765,-17.412,0,0,,
633,-14.431,-20.235,-14.902000000000001,0,0,,
634,-15.373,-20.078,-13.960999999999999,0,0,,
635,-16.627,-19.451,-12.706,0,0,,
636,-16.941,-18.98,-11.765,0,0,,
637,-16.157,-16.157,-12.078,0,0,,
638,-16.0,-14.275,-12.549000000000001,0,0,,
639,-17.098,-9.882,-17.098,0,0,,
640,-19.608,-7.372999999999999,-19.608,0,0,,
641,-24.314,-2.1959999999999997,-18.039,0,0,,
642,-26.353,-2.51,-13.02,0,0,,
643,-24.941,-3.9219999999999997,-10.824000000000002,0,0,,
644,-19.294,-6.275,-9.097999999999999,0,0,,
645,-17.569000000000003,-7.372999999999999,-8.471,0,0,,
646,-12.078,-11.137,-3.9219999999999997,0,0,,
647,-0.47100000000000003,-13.647,-0.314,1,0,30.0,
648,29.02,-16.941,6.275,0,0,,
649,44.078,-18.51,5.49,0,0,,
650,19.922,-17.725,0.157,0,0,,
651,-12.235,-12.235,-1.725,0,0,,
652,-6.117999999999999,-14.275,1.255,0,0,,
653,-7.529,-17.882,-0.314,0,0,,
654,-10.824000000000002,-14.275,-1.0979999999999999,0,0,,
655,-8.0,-4.3919999999999995,1.412,0,0,,
656,-4.5489999999999995,-5.961,2.1959999999999997,0,0,,
657,-1.0979999999999999,-9.882,-6.745,0,0,,
658,-0.627,-10.51,-11.765,0,0,,
659,0.0,-11.922,-9.568999999999999,0,0,,
660,4.863,-15.843,-2.824,0,0,,
661,4.078,-13.175999999999998,-1.255,0,0,,
662,-0.314,-6.431,-4.3919999999999995,0,0,,
663,-0.314,-6.431,-5.02,0,0,,
664,-0.627,-10.196,-3.137,0,0,,
665,-1.725,-10.039,-2.1959999999999997,0,0,,
666,-0.157,-8.471,-1.725,0,0,,
667,3.608,-9.882,-1.0979999999999999,0,0,,
668,5.176,-9.882,-2.1959999999999997,0,0,,
669,4.235,-9.412,-3.2939999999999996,0,0,,
670,3.451,-9.568999999999999,-3.137,0,0,,
671,3.9219999999999997,-10.039,-1.255,0,0,,
672,3.137,-9.412,-1.725,0,0,,
673,2.039,-8.0,-2.667,0,0,,
674,1.255,-8.471,-2.824,0,0,,
675,2.51,-8.941,-2.51,0,0,,
676,3.451,-9.097999999999999,-2.824,0,0,,
677,2.667,-8.783999999999999,-3.137,0,0,,
678,2.1959999999999997,-9.568999999999999,-2.667,0,0,,
679,2.1959999999999997,-9.882,-1.882,0,0,,
680,1.412,-9.097999999999999,-2.824,0,0,,
681,0.784,-8.627,-3.137,0,0,,
682,0.157,-8.471,-2.667,0,0,,
683,2.039,-9.255,-3.137,0,0,,
684,1.882,-9.097999999999999,-3.137,0,0,,
685,0.627,-8.471,-3.9219999999999997,0,0,,
686,0.47100000000000003,-8.783999999999999,-3.2939999999999996,0,0,,
687,1.725,-9.255,-2.824,0,0,,
688,1.569,-9.568999999999999,-3.137,0,0,,
689,0.0,-8.941,-3.765,0,0,,
690,-0.157,-9.255,-2.98,0,0,,
691,0.627,-9.568999999999999,-2.824,0,0,,
692,0.157,-8.941,-3.608,0,0,,
693,-0.314,-8.941,-4.078,0,0,,
694,-0.47100000000000003,-9.568999999999999,-3.608,0,0,,
695,-0.314,-9.882,-3.451,0,0,,
696,0.157,-9.568999999999999,-4.3919999999999995,0,0,,
697,0.0,-9.255,-4.5489999999999995,0,0,,
698,-1.882,-10.196,-2.039,0,0,,
699,-1.0979999999999999,-10.039,-2.51,0,0,,
700,-0.627,-9.725,-2.667,0,0,,
701,-1.255,-8.941,-3.608,0,0,,
702,-1.725,-9.412,-2.51,0,0,,
703,0.157,-10.196,-2.824,0,0,,
704,0.0,-10.039,-3.9219999999999997,0,0,,
705,-1.569,-10.039,-4.5489999999999995,0,0,,
706,-1.725,-10.667,-4.235,0,0,,
707,0.0,-10.98,-4.235,0,0,,
708,-0.47100000000000003,-10.353,-5.332999999999999,0,0,,
709,-1.725,-10.353,-4.863,0,0,,
710,-2.039,-10.667,-3.451,0,0,,
711,-1.725,-10.98,-3.608,0,0,,
712,-2.039,-10.51,-4.078,0,0,,
713,-2.824,-10.353,-3.9219999999999997,0,0,,
714,-2.667,-11.294,-3.2939999999999996,0,0,,
715,-2.353,-11.294,-4.235,0,0,,
716,-2.824,-11.922,-4.235,0,0,,
717,-3.451,-13.02,-3.765,0,0,,
718,-2.824,-13.333,-2.98,0,0,,
719,-1.569,-13.960999999999999,-2.98,0,0,,
720,-1.569,-14.118,-2.98,0,0,,
721,-1.0979999999999999,-15.216,-1.725,0,0,,
722,-0.157,-16.157,-1.255,0,0,,
723,0.157,-17.569000000000003,-0.627,0,0,,
724,0.47100000000000003,-18.51,-0.314,0,0,,
725,0.47100000000000003,-18.824,0.157,0,0,,
726,1.0979999999999999,-18.352999999999998,-0.784,0,0,,
727,0.941,-17.882,-1.882,0,0,,
728,0.314,-17.098,-4.706,0,0,,
729,0.157,-17.569000000000003,-5.02,0,1,,-30.0
730,1.569,-18.98,-5.647,0,0,,
731,4.235,-18.667,-5.49,0,0,,
732,3.765,-17.882,-5.803999999999999,0,0,,
733,2.353,-15.529000000000002,-5.961,0,0,,
734,2.353,-14.118,-7.372999999999999,0,0,,
735,0.157,-12.549000000000001,-8.471,0,0,,
736,-0.627,-11.294,-8.941,0,0,,
737,0.314,-8.783999999999999,-8.157,0,0,,
738,2.039,-5.49,-8.783999999999999,0,0,,
739,0.314,-4.5489999999999995,-7.686,0,0,,
740,0.784,-6.587999999999999,-3.137,0,0,,
741,3.765,-6.745,-2.039,0,0,,
742,6.117999999999999,-4.3919999999999995,-0.627,0,0,,
743,6.117999999999999,-3.2939999999999996,0.0,0,0,,
744,4.3919999999999995,-2.667,0.47100000000000003,0,0,,
745,3.451,-2.353,0.314,0,0,,
746,2.1959999999999997,-1.569,0.0,0,0,,
747,2.039,-1.0979999999999999,0.0,0,0,,
748,2.039,-1.569,-0.157,0,0,,
749,1.0979999999999999,-2.1959999999999997,-0.157,0,0,,
750,0.784,-2.51,0.157,0,0,,
751,0.784,-2.98,0.0,0,0,,
752,0.784,-3.137,0.0,0,0,,
753,1.0979999999999999,-3.765,-0.314,0,0,,
754,1.0979999999999999,-3.9219999999999997,-0.314,0,0,,
755,1.0979999999999999,-4.706,-0.784,0,0,,
756,1.255,-5.332999999999999,-1.255,0,0,,
757,1.569,-5.647,-1.412,0,0,,
758,1.725,-7.059,-2.51,0,0,,
759,1.725,-8.0,-3.137,0,0,,
760,1.0979999999999999,-9.097999999999999,-4.3919999999999995,0,0,,
761,0.47100000000000003,-9.882,-5.332999999999999,0,0,,
762,-0.627,-10.667,-6.117999999999999,0,0,,
763,-1.725,-12.235,-5.961,0,0,,
764,-1.882,-13.647,-5.961,0,0,,
765,-3.2939999999999996,-16.627,-6.431,0,0,,
766,-5.176,-17.882,-7.059,0,0,,
767,-9.412,-19.137,-10.353,0,0,,
768,-10.353,-19.137,-11.607999999999999,0,0,,
769,-11.137,-18.98,-13.333,0,0,,
770,-11.922,-18.98,-14.118,0,0,,
771,-13.804,-18.352999999999998,-13.647,0,0,,
772,-16.471,-18.667,-12.235,0,0,,
773,-16.627,-18.352999999999998,-10.98,0,0,,
774,-15.216,-17.412,-9.255,0,0,,
775,-14.588,-16.941,-9.412,0,0,,
776,-14.745,-14.118,-10.353,0,0,,
777,-16.471,-12.863,-12.078,0,0,,
778,-20.549,-8.314,-16.784000000000002,0,0,,
779,-23.843000000000004,-2.824,-17.098,0,0,,
780,-25.412,-1.569,-14.275,0,0,,
781,-23.686,-3.2939999999999996,-10.51,0,0,,
782,-21.804000000000002,-6.745,-9.882,0,0,,
783,-19.922,-6.745,-9.097999999999999,0,0,,
784,-9.882,-10.039,-5.02,0,0,,
785,26.353,-17.882,0.0,0,0,,
786,43.137,-19.608,-0.157,0,0,,
787,6.275,-17.255,-5.647,1,0,30.0,
788,-12.863,-9.255,-6.275,0,0,,
789,-1.255,-12.549000000000001,-1.569,0,0,,
790,1.569,-16.0,-2.51,0,0,,
791,-0.314,-11.765,-3.451,0,0,,
792,-1.412,-6.902,0.0,0,0,,
793,-0.47100000000000003,-8.783999999999999,-0.157,0,0,,
794,-1.412,-9.882,-5.02,0,0,,
795,-2.667,-10.353,-6.117999999999999,0,0,,
796,-2.51,-12.235,-4.235,0,0,,
797,0.627,-13.804,-1.412,0,0,,
798,-0.157,-12.078,-1.0979999999999999,0,0,,
799,-0.784,-8.627,-3.451,0,0,,
800,0.314,-8.314,-3.9219999999999997,0,0,,
801,1.569,-10.039,-2.824,0,0,,
802,0.941,-9.568999999999999,-2.667,0,0,,
803,2.039,-8.314,-3.137,0,0,,
804,3.765,-8.627,-1.725,0,0,,
805,5.332999999999999,-9.412,-2.353,0,0,,
806,4.078,-9.255,-2.353,0,0,,
807,2.824,-9.097999999999999,-2.824,0,0,,
808,4.235,-9.097999999999999,-2.1959999999999997,0,0,,
809,4.863,-9.255,-1.725,0,0,,
810,2.824,-8.157,-3.137,0,0,,
811,1.725,-7.843,-3.765,0,0,,
812,2.1959999999999997,-9.412,-2.51,0,0,,
813,3.765,-9.412,-2.667,0,0,,
814,3.137,-8.941,-2.51,0,0,,
815,1.412,-9.412,-2.1959999999999997,0,0,,
816,0.784,-9.725,-1.412,0,0,,
817,1.0979999999999999,-9.725,-2.039,0,0,,
818,0.0,-9.412,-2.353,0,0,,
819,-0.784,-9.255,-2.98,0,0,,
820,1.0979999999999999,-9.882,-2.98,0,0,,
821,1.569,-9.412,-3.608,0,0,,
822,0.784,-8.627,-4.078,0,0,,
823,0.314,-8.627,-3.765,0,0,,
824,1.569,-9.255,-3.2939999999999996,0,0,,
825,1.725,-9.097999999999999,-3.451,0,0,,
826,0.0,-8.627,-3.608,0,0,,
827,-0.47100000000000003,-8.783999999999999,-4.078,0,0,,
828,0.0,-9.725,-2.824,0,0,,
829,0.314,-8.941,-4.3919999999999995,0,0,,
830,0.157,-8.941,-4.863,0,0,,
831,-0.941,-9.255,-4.3919999999999995,0,0,,
832,-0.941,-10.039,-2.667,0,0,,
833,-1.412,-9.882,-3.2939999999999996,0,0,,
834,-1.882,-9.882,-3.451,0,0,,
835,-2.824,-9.882,-2.824,0,0,,
836,-1.412,-10.039,-1.882,0,0,,
837,-1.412,-10.039,-1.725,0,0,,
838,-1.882,-9.568999999999999,-2.353,0,0,,
839,-1.725,-9.725,-1.882,0,0,,
840,-0.157,-9.725,-2.1959999999999997,0,0,,
841,-0.47100000000000003,-9.412,-2.824,0,0,,
842,-0.784,-9.255,-3.9219999999999997,0,0,,
843,-1.569,-9.882,-4.078,0,0,,
844,-0.47100000000000003,-10.51,-4.235,0,0,,
845,-0.941,-10.353,-5.647,0,0,,
846,-1.569,-10.353,-5.332999999999999,0,0,,
847,-1.882,-10.824000000000002,-3.2939999999999996,0,0,,
848,-1.569,-10.98,-3.137,0,0,,
849,-2.353,-10.667,-3.137,0,0,,
850,-2.824,-10.824000000000002,-3.2939999999999996,0,0,,
851,-2.667,-11.607999999999999,-2.98,0,0,,
852,-2.1959999999999997,-11.607999999999999,-4.235,0,0,,
853,-2.1959999999999997,-12.078,-4.5489999999999995,0,0,,
854,-2.824,-13.49,-3.9219999999999997,0,0,,
855,-2.667,-14.275,-3.2939999999999996,0,0,,
856,-1.412,-14.745,-2.98,0,0,,
857,-1.725,-14.745,-3.2939999999999996,0,0,,
858,-0.784,-16.627,-2.1959999999999997,0,0,,
859,0.0,-17.569000000000003,-1.412,0,0,,
860,1.255,-18.98,-0.784,0,0,,
861,1.569,-19.451,-1.412,0,0,,
862,1.412,-19.608,-1.412,0,0,,
863,0.784,-19.137,-2.51,0,0,,
864,0.627,-18.824,-3.451,0,0,,
865,0.0,-18.667,-4.235,0,0,,
866,0.47100000000000003,-18.98,-5.961,0,1,,-30.0
867,6.275,-17.882,-8.471,0,0,,
868,7.529,-18.195999999999998,-7.059,0,0,,
869,3.451,-16.157,-4.078,0,0,,
870,1.0979999999999999,-13.804,-5.961,0,0,,
871,-0.314,-13.02,-7.686,0,0,,
872,-4.5489999999999995,-10.196,-8.941,0,0,,
873,-4.5489999999999995,-8.783999999999999,-9.097999999999999,0,0,,
874,0.941,-5.02,-7.686,0,0,,
875,2.824,-4.5489999999999995,-5.02,0,0,,
876,2.1959999999999997,-6.275,-3.451,0,0,,
877,6.275,-6.745,-0.784,0,0,,
878,7.216,-5.647,-0.157,0,0,,
879,5.961,-3.2939999999999996,0.784,0,0,,
880,4.706,-2.98,0.784,0,0,,
881,2.98,-2.039,0.314,0,0,,
882,2.353,-2.039,0.157,0,0,,
883,2.1959999999999997,-2.039,-0.157,0,0,,
884,2.039,-2.667,-0.157,0,0,,
885,1.725,-3.137,-0.157,0,0,,
886,1.569,-3.765,0.157,0,0,,
887,1.569,-4.078,0.157,0,0,,
888,1.255,-4.078,0.0,0,0,,
889,1.255,-4.235,-0.314,0,0,,
890,1.725,-5.176,-0.314,0,0,,
891,2.353,-5.803999999999999,0.0,0,0,,
892,3.137,-6.745,-0.47100000000000003,0,0,,
893,1.569,-7.372999999999999,-2.039,0,0,,
894,0.784,-7.686,-3.137,0,0,,
895,-0.941,-8.0,-5.02,0,0,,
896,-0.941,-7.843,-5.49,0,0,,
897,0.157,-8.627,-6.431,0,0,,
898,0.157,-9.255,-7.059,0,0,,
899,-0.314,-10.824000000000002,-7.529,0,0,,
900,-1.0979999999999999,-11.922,-8.0,0,0,,
901,-3.137,-14.431,-8.471,0,0,,
902,-5.02,-16.471,-10.196,0,0,,
903,-5.803999999999999,-17.098,-11.294,0,0,,
904,-8.0,-17.882,-14.588,0,0,,
905,-8.941,-17.882,-15.686,0,0,,
906,-10.51,-18.667,-17.882,0,0,,
907,-11.450999999999999,-18.667,-18.195999999999998,0,0,,
908,-14.275,-19.137,-16.627,0,0,,
909,-16.941,-18.51,-14.431,0,0,,
910,-17.882,-18.039,-13.175999999999998,0,0,,
911,-18.824,-16.0,-12.549000000000001,0,0,,
912,-18.667,-13.960999999999999,-12.392000000000001,0,0,,
913,-17.255,-9.568999999999999,-16.0,0,0,,
914,-17.725,-7.216,-17.725,0,0,,
915,-21.961,-3.2939999999999996,-18.039,0,0,,
916,-24.156999999999996,-2.1959999999999997,-15.843,0,0,,
917,-25.098000000000003,-2.667,-10.98,0,0,,
918,-21.176,-5.332999999999999,-8.157,0,0,,
919,-17.725,-10.353,-7.216,0,0,,
920,-8.0,-12.235,1.0979999999999999,0,0,,
921,7.843,-14.275,3.765,1,0,30.0,
922,41.568999999999996,-19.137,5.803999999999999,0,0,,
923,49.568999999999996,-21.02,4.235,0,0,,
924,-6.431,-15.373,-4.3919999999999995,0,0,,
925,-7.059,-12.392000000000001,-0.47100000000000003,0,0,,
926,-2.1959999999999997,-15.686,-0.157,0,0,,
927,-10.51,-15.373,-0.784,0,0,,
928,-10.667,-8.627,-1.725,0,0,,
929,-2.51,-6.587999999999999,0.627,0,0,,
930,0.47100000000000003,-8.783999999999999,-3.451,0,0,,
931,-1.255,-10.824000000000002,-10.353,0,0,,
932,-2.039,-12.235,-8.0,0,0,,
933,0.941,-14.275,-3.451,0,0,,
934,2.98,-10.98,-0.784,0,0,,
935,1.725,-8.783999999999999,-2.353,0,0,,
936,-0.47100000000000003,-7.529,-5.49,0,0,,
937,-1.569,-8.941,-4.5489999999999995,0,0,,
938,0.0,-10.353,-1.569,0,0,,
939,0.627,-9.725,-2.039,0,0,,
940,2.824,-9.568999999999999,-2.353,0,0,,
941,5.02,-9.255,-2.51,0,0,,
942,7.529,-9.568999999999999,-2.353,0,0,,
943,5.647,-8.783999999999999,-2.51,0,0,,
944,5.176,-7.686,-3.451,0,0,,
945,3.451,-7.529,-2.824,0,0,,
946,3.765,-8.314,-2.1959999999999997,0,0,,
947,2.98,-8.314,-3.451,0,0,,
948,2.824,-8.627,-3.451,0,0,,
949,1.882,-8.941,-2.353,0,0,,
950,3.137,-9.568999999999999,-2.1959999999999997,0,0,,
951,1.412,-9.725,-2.353,0,0,,
952,-0.314,-9.255,-2.667,0,0,,
953,-0.157,-9.568999999999999,-2.1959999999999997,0,0,,
954,0.627,-9.882,-2.824,0,0,,
955,0.47100000000000003,-9.255,-3.137,0,0,,
956,0.0,-9.255,-3.137,0,0,,
957,1.0979999999999999,-9.725,-2.51,0,0,,
958,2.039,-9.412,-3.2939999999999996,0,0,,
959,0.784,-8.471,-3.9219999999999997,0,0,,
960,0.314,-8.471,-4.235,0,0,,
961,0.941,-9.255,-2.824,0,0,,
962,1.412,-8.941,-3.765,0,0,,
963,0.314,-8.471,-4.235,0,0,,
964,-0.314,-8.471,-4.235,0,0,,
965,0.314,-9.097999999999999,-4.078,0,0,,
966,0.314,-9.097999999999999,-3.608,0,0,,
967,0.0,-9.255,-3.608,0,0,,
968,-2.353,-9.725,-3.451,0,0,,
969,-1.725,-9.882,-2.667,0,0,,
970,-0.784,-9.568999999999999,-2.98,0,0,,
971,-1.569,-9.097999999999999,-3.451,0,0,,
972,-2.353,-9.725,-2.824,0,0,,
973,-1.725,-9.568999999999999,-2.353,0,0,,
974,-1.0979999999999999,-8.941,-3.137,0,0,,
975,-1.725,-8.783999999999999,-3.765,0,0,,
976,-2.039,-9.097999999999999,-3.9219999999999997,0,0,,
977,-0.784,-10.196,-3.2939999999999996,0,0,,
978,-0.47100000000000003,-10.196,-4.235,0,0,,
979,-1.725,-10.039,-5.02,0,0,,
980,-1.882,-10.51,-4.5489999999999995,0,0,,
981,-0.941,-10.824000000000002,-3.451,0,0,,
982,-1.412,-10.353,-4.235,0,0,,
983,-1.725,-10.353,-4.3919999999999995,0,0,,
984,-2.51,-10.824000000000002,-3.2939999999999996,0,0,,
985,-2.039,-11.294,-2.667,0,0,,
986,-2.039,-11.450999999999999,-3.2939999999999996,0,0,,
987,-2.667,-11.450999999999999,-3.451,0,0,,
988,-2.51,-12.235,-3.137,0,0,,
989,-1.882,-12.078,-2.98,0,0,,
990,-1.882,-12.392000000000001,-3.2939999999999996,0,0,,
991,-2.1959999999999997,-13.175999999999998,-2.98,0,0,,
992,-2.353,-14.118,-1.725,0,0,,
993,-0.627,-15.059000000000001,-1.255,0,0,,
994,-0.47100000000000003,-15.529000000000002,-1.0979999999999999,0,0,,
995,-0.157,-18.039,0.157,0,0,,
996,0.314,-19.451,0.47100000000000003,0,0,,
997,1.882,-20.706,0.627,0,0,,
998,2.98,-20.392,-0.784,0,0,,
999,2.824,-19.922,-1.412,0,0,,
1000,2.1959999999999997,-19.137,-3.451,0,0,,
1001,2.824,-18.824,-4.235,0,0,,
1002,2.51,-18.98,-5.647,0,1,,-30.0
1003,2.98,-18.98,-6.117999999999999,0,0,,
1004,3.137,-19.137,-5.02,0,0,,
1005,2.824,-18.039,-4.863,0,0,,
1006,4.235,-14.745,-7.059,0,0,,
1007,2.98,-13.175999999999998,-9.568999999999999,0,0,,
1008,1.0979999999999999,-11.294,-9.882,0,0,,
1009,-0.157,-9.568999999999999,-8.0,0,0,,
1010,1.0979999999999999,-5.647,-9.097999999999999,0,0,,
1011,-1.569,-4.5489999999999995,-9.725,0,0,,
1012,-2.824,-5.49,-6.275,0,0,,
1013,2.51,-6.745,-2.353,0,0,,
1014,6.902,-4.3919999999999995,-0.941,0,0,,
1015,7.372999999999999,-3.137,-0.47100000000000003,0,0,,
1016,5.647,-2.824,0.47100000000000003,0,0,,
1017,4.5489999999999995,-2.353,0.314,0,0,,
1018,2.667,-1.0979999999999999,-0.314,0,0,,
1019,2.51,-0.941,-0.157,0,0,,
1020,2.824,-1.255,-0.47100000000000003,0,0,,
1021,2.824,-1.882,-0.314,0,0,,
1022,2.51,-2.667,-0.314,0,0,,
1023,1.882,-2.98,-0.627,0,0,,
1024,1.412,-3.451,-0.627,0,0,,
1025,0.784,-3.9219999999999997,-1.0979999999999999,0,0,,
1026,1.0979999999999999,-4.235,-1.255,0,0,,
1027,2.1959999999999997,-5.02,-2.039,0,0,,
1028,2.51,-5.02,-2.1959999999999997,0,0,,
1029,2.51,-6.117999999999999,-2.824,0,0,,
1030,2.039,-7.372999999999999,-4.5489999999999995,0,0,,
1031,1.725,-8.0,-4.5489999999999995,0,0,,
1032,1.0979999999999999,-8.783999999999999,-6.275,0,0,,
1033,0.784,-9.412,-6.587999999999999,0,0,,
1034,-0.157,-10.667,-7.059,0,0,,
1035,-0.784,-11.607999999999999,-7.059,0,0,,
1036,-1.725,-13.960999999999999,-7.059,0,0,,
1037,-2.51,-15.059000000000001,-7.843,0,0,,
1038,-5.332999999999999,-17.255,-10.039,0,0,,
1039,-8.941,-17.569000000000003,-12.549000000000001,0,0,,
1040,-10.039,-17.882,-13.175999999999998,0,0,,
1041,-9.882,-18.667,-14.588,0,0,,
1042,-10.039,-19.137,-14.431,0,0,,
1043,-11.765,-19.922,-14.275,0,0,,
1044,-12.392000000000001,-19.765,-13.647,0,0,,
1045,-13.49,-19.608,-12.392000000000001,0,0,,
1046,-13.804,-19.451,-11.765,0,0,,
1047,-14.588,-17.725,-11.765,0,0,,
1048,-15.843,-13.804,-13.804,0,0,,
1049,-17.569000000000003,-11.450999999999999,-15.529000000000002,0,0,,
1050,-22.118000000000002,-6.117999999999999,-16.941,0,0,,
1051,-24.471,-3.765,-15.686,0,0,,
1052,-27.451,-2.1959999999999997,-11.294,0,0,,
1053,-26.666999999999998,-3.137,-9.882,0,0,,
1054,-21.176,-6.117999999999999,-8.627,0,0,,
1055,-15.843,-11.607999999999999,-7.843,0,0,,
1056,-12.549000000000001,-11.137,-5.803999999999999,0,0,,
1057,14.902000000000001,-16.314,4.078,0,0,,
1058,31.215999999999998,-17.569000000000003,3.608,0,0,,
1059,36.863,-16.941,0.784,1,0,30.0,
1060,13.49,-14.902000000000001,0.627,0,0,,
1061,-11.607999999999999,-10.51,-0.784,0,0,,
1062,-5.02,-13.175999999999998,1.0979999999999999,0,0,,
1063,-5.803999999999999,-16.941,-1.0979999999999999,0,0,,
1064,-6.587999999999999,-9.097999999999999,-2.824,0,0,,
1065,-3.451,-7.059,-1.412,0,0,,
1066,-0.314,-9.568999999999999,-0.157,0,0,,
1067,-0.314,-10.51,-3.608,0,0,,
1068,1.255,-11.450999999999999,-9.255,0,0,,
1069,0.314,-11.450999999999999,-8.783999999999999,0,0,,
1070,0.314,-14.588,-3.608,0,0,,
1071,1.725,-11.922,0.0,0,0,,
1072,0.47100000000000003,-9.568999999999999,-0.784,0,0,,
1073,-0.784,-6.902,-3.765,0,0,,
1074,-0.941,-8.0,-4.078,0,0,,
1075,2.1959999999999997,-9.255,-1.569,0,0,,
1076,4.706,-8.471,-2.039,0,0,,
1077,4.5489999999999995,-8.783999999999999,-2.1959999999999997,0,0,,
1078,4.3919999999999995,-9.725,-2.039,0,0,,
1079,3.451,-9.882,-1.882,0,0,,
1080,2.353,-9.568999999999999,-2.353,0,0,,
1081,1.412,-9.097999999999999,-2.51,0,0,,
1082,1.882,-9.412,-1.725,0,0,,
1083,1.569,-8.627,-2.51,0,0,,
1084,2.1959999999999997,-8.783999999999999,-3.137,0,0,,
1085,2.353,-9.255,-2.667,0,0,,
1086,4.3919999999999995,-9.097999999999999,-2.667,0,0,,
1087,3.2939999999999996,-9.568999999999999,-2.1959999999999997,0,0,,
1088,0.941,-9.255,-2.1959999999999997,0,0,,
1089,0.627,-8.941,-2.1959999999999997,0,0,,
1090,1.255,-9.568999999999999,-1.882,0,0,,
1091,0.941,-9.412,-2.353,0,0,,
1092,0.47100000000000003,-8.941,-3.765,0,0,,
1093,0.0,-8.941,-3.2939999999999996,0,0,,
1094,2.039,-9.568999999999999,-3.2939999999999996,0,0,,
1095,1.255,-8.783999999999999,-3.608,0,0,,
1096,1.255,-8.783999999999999,-3.765,0,0,,
1097,0.784,-9.568999999999999,-2.824,0,0,,
1098,1.882,-9.568999999999999,-2.98,0,0,,
1099,0.47100000000000003,-9.255,-3.451,0,0,,
1100,-0.314,-9.097999999999999,-3.9219999999999997,0,0,,
1101,-0.314,-9.568999999999999,-2.667,0,0,,
1102,1.255,-9.255,-4.235,0,0,,
1103,1.0979999999999999,-8.783999999999999,-5.02,0,0,,
1104,-0.157,-9.882,-3.451,0,0,,
1105,-0.627,-10.667,-2.353,0,0,,
1106,-0.157,-9.882,-3.137,0,0,,
1107,-0.47100000000000003,-9.725,-3.451,0,0,,
1108,-1.882,-9.255,-3.137,0,0,,
1109,-1.882,-9.568999999999999,-2.1959999999999997,0,0,,
1110,-0.47100000000000003,-10.039,-2.51,0,0,,
1111,-2.1959999999999997,-9.255,-3.137,0,0,,
1112,-2.667,-9.097999999999999,-2.98,0,0,,
1113,-0.627,-9.725,-2.039,0,0,,
1114,-0.157,-9.725,-2.98,0,0,,
1115,-0.784,-9.255,-3.608,0,0,,
1116,-1.0979999999999999,-9.255,-3.9219999999999997,0,0,,
1117,-0.941,-10.196,-3.137,0,0,,
1118,0.0,-10.51,-4.3919999999999995,0,0,,
1119,-0.627,-10.353,-4.863,0,0,,
1120,-1.412,-10.667,-4.078,0,0,,
1121,-1.412,-10.98,-3.2939999999999996,0,0,,
1122,-1.0979999999999999,-10.667,-3.608,0,0,,
1123,-1.569,-10.667,-3.765,0,0,,
1124,-2.51,-11.294,-2.824,0,0,,
1125,-2.1959999999999997,-11.765,-2.51,0,0,,
1126,-1.882,-11.922,-4.078,0,0,,
1127,-2.353,-12.863,-4.235,0,0,,
1128,-2.039,-13.49,-3.765,0,0,,
1129,-0.784,-14.431,-2.824,0,0,,
1130,-0.47100000000000003,-14.745,-2.51,0,0,,
1131,-0.47100000000000003,-14.902000000000001,-2.667,0,0,,
1132,-0.627,-15.373,-1.882,0,0,,
1133,1.0979999999999999,-17.725,-0.627,0,0,,
1134,1.412,-18.195999999999998,-0.627,0,0,,
1135,2.039,-19.608,-0.627,0,0,,
1136,2.353,-19.765,-1.255,0,0,,
1137,2.353,-18.824,-2.98,0,0,,
1138,1.0979999999999999,-17.569000000000003,-4.5489999999999995,0,0,,
1139,0.157,-17.725,-4.3919999999999995,0,0,,
1140,0.784,-18.195999999999998,-5.647,0,1,,-30.0
1141,3.608,-17.882,-6.745,0,0,,
1142,3.137,-18.195999999999998,-3.9219999999999997,0,0,,
1143,1.0979999999999999,-16.0,-5.803999999999999,0,0,,
1144,1.725,-15.373,-7.686,0,0,,
1145,-0.941,-13.333,-8.783999999999999,0,0,,
1146,-2.039,-12.235,-8.0,0,0,,
1147,0.314,-8.471,-8.471,0,0,,
1148,1.255,-5.49,-7.529,0,0,,
1149,0.627,-5.803999999999999,-6.745,0,0,,
1150,0.941,-7.059,-3.765,0,0,,
1151,5.803999999999999,-7.686,-1.882,0,0,,
1152,6.587999999999999,-4.3919999999999995,0.0,0,0,,
1153,5.961,-3.451,0.627,0,0,,
1154,3.765,-2.667,0.314,0,0,,
1155,2.98,-2.1959999999999997,0.47100000000000003,0,0,,
1156,2.51,-1.412,0.157,0,0,,
1157,2.824,-1.412,-0.157,0,0,,
1158,2.98,-2.1959999999999997,0.0,0,0,,
1159,2.667,-3.137,0.157,0,0,,
1160,2.667,-3.451,0.47100000000000003,0,0,,
1161,1.569,-3.765,0.47100000000000003,0,0,,
1162,1.412,-4.078,0.314,0,0,,
1163,0.784,-4.3919999999999995,0.157,0,0,,
1164,0.784,-4.706,-0.314,0,0,,
1165,1.0979999999999999,-5.176,-0.941,0,0,,
1166,0.941,-5.49,-1.0979999999999999,0,0,,
1167,1.255,-6.275,-2.039,0,0,,
1168,1.0979999999999999,-7.843,-2.98,0,0,,
1169,1.0979999999999999,-8.471,-3.608,0,0,,
1170,0.47100000000000003,-9.568999999999999,-4.706,0,0,,
1171,0.157,-9.882,-5.02,0,0,,
1172,-0.314,-11.137,-5.647,0,0,,
1173,-0.941,-12.235,-5.803999999999999,0,0,,
1174,-1.725,-14.588,-5.961,0,0,,
1175,-3.9219999999999997,-17.098,-7.059,0,0,,
1176,-5.961,-18.039,-8.314,0,0,,
1177,-9.725,-18.195999999999998,-11.450999999999999,0,0,,
1178,-11.137,-18.195999999999998,-13.175999999999998,0,0,,
1179,-11.922,-18.51,-14.745,0,0,,
1180,-12.392000000000001,-18.667,-15.373,0,0,,
1181,-14.588,-19.294,-14.275,0,0,,
1182,-15.686,-19.294,-14.118,0,0,,
1183,-16.157,-18.824,-12.863,0,0,,
1184,-16.784000000000002,-17.882,-11.765,0,0,,
1185,-16.627,-16.941,-12.078,0,0,,
1186,-16.784000000000002,-12.706,-14.902000000000001,0,0,,
1187,-17.725,-10.196,-17.412,0,0,,
1188,-23.059,-3.9219999999999997,-19.922,0,0,,
1189,-26.195999999999998,-1.0979999999999999,-18.195999999999998,0,0,,
1190,-29.333000000000002,-0.314,-13.175999999999998,0,0,,
1191,-21.961,-6.587999999999999,-10.196,0,0,,
1192,-20.078,-8.783999999999999,-9.412,0,0,,
1193,-14.431,-8.783999999999999,-3.608,0,0,,
1194,3.608,-13.804,-0.157,1,0,30.0,
1195,44.706,-20.235,3.451,0,0,,
1196,58.196000000000005,-23.373,5.803999999999999,0,0,,
1197,-10.51,-16.941,-5.803999999999999,0,0,,
1198,-20.863000000000003,-11.137,-5.332999999999999,0,0,,
1199,1.255,-13.804,1.569,0,0,,
1200,-6.117999999999999,-13.804,-1.255,0,0,,
1201,-7.216,-6.745,-1.255,0,0,,
1202,3.451,0.47100000000000003,-11.922,0,0,,
1203,2.1959999999999997,-4.078,-11.607999999999999,0,0,,
1204,-5.332999999999999,-13.804,-8.0,0,0,,
1205,-5.803999999999999,-18.98,-2.98,0,0,,
1206,-1.569,-15.373,-0.941,0,0,,
1207,-1.569,-11.450999999999999,-0.784,0,0,,
1208,0.784,-8.471,-3.137,0,0,,
1209,-0.314,-8.627,-2.824,0,0,,
1210,-2.51,-8.941,-2.667,0,0,,
1211,0.314,-9.412,-1.255,0,0,,
1212,2.1959999999999997,-9.725,-1.255,0,0,,
1213,3.608,-9.725,-2.039,0,0,,
1214,3.137,-9.882,-2.51,0,0,,
1215,4.706,-9.882,-1.882,0,0,,
1216,3.608,-9.097999999999999,-2.98,0,0,,
1217,2.98,-8.627,-2.824,0,0,,
1218,1.255,-7.843,-2.667,0,0,,
1219,2.353,-8.0,-2.353,0,0,,
1220,2.353,-8.627,-2.667,0,0,,
1221,2.667,-8.627,-2.51,0,0,,
1222,2.353,-9.255,-2.039,0,0,,
1223,2.039,-9.725,-1.255,0,0,,
1224,1.725,-9.882,-1.882,0,0,,
1225,0.627,-9.568999999999999,-2.039,0,0,,
1226,-0.47100000000000003,-9.097999999999999,-2.51,0,0,,
1227,0.47100000000000003,-9.568999999999999,-2.51,0,0,,
1228,-0.157,-9.097999999999999,-3.137,0,0,,
1229,0.0,-9.255,-3.608,0,0,,
1230,-0.47100000000000003,-9.097999999999999,-3.765,0,0,,
1231,0.157,-8.783999999999999,-2.98,0,0,,
1232,0.157,-8.627,-3.451,0,0,,
1233,-0.314,-8.471,-4.078,0,0,,
1234,-0.784,-9.412,-3.2939999999999996,0,0,,
1235,-0.157,-9.725,-2.98,0,0,,
1236,-1.0979999999999999,-9.097999999999999,-4.078,0,0,,
1237,-1.0979999999999999,-9.412,-4.078,0,0,,
1238,-1.412,-9.255,-3.608,0,0,,
1239,-0.627,-9.725,-3.137,0,0,,
1240,-0.784,-9.412,-3.608,0,0,,
1241,-1.725,-9.097999999999999,-4.235,0,0,,
1242,-0.627,-8.941,-4.5489999999999995,0,0,,
1243,-0.627,-10.353,-2.667,0,0,,
1244,-2.039,-10.667,-2.039,0,0,,
1245,-2.1959999999999997,-9.255,-3.137,0,0,,
1246,-1.255,-9.568999999999999,-2.667,0,0,,
1247,0.314,-9.568999999999999,-2.667,0,0,,
1248,-0.157,-9.725,-3.2939999999999996,0,0,,
1249,-1.569,-9.882,-3.765,0,0,,
1250,-1.0979999999999999,-10.824000000000002,-4.078,0,0,,
1251,-0.47100000000000003,-11.137,-4.3919999999999995,0,0,,
1252,-0.784,-10.667,-4.5489999999999995,0,0,,
1253,-1.255,-10.824000000000002,-4.863,0,0,,
1254,-0.941,-11.607999999999999,-4.078,0,0,,
1255,-0.47100000000000003,-11.294,-3.765,0,0,,
1256,-1.412,-10.353,-3.9219999999999997,0,0,,
1257,-2.51,-10.824000000000002,-3.9219999999999997,0,0,,
1258,-2.1959999999999997,-11.294,-3.765,0,0,,
1259,-1.569,-11.137,-4.235,0,0,,
1260,-2.1959999999999997,-10.667,-5.02,0,0,,
1261,-2.824,-11.607999999999999,-4.5489999999999995,0,0,,
1262,-2.51,-12.235,-3.765,0,0,,
1263,-1.882,-12.706,-3.9219999999999997,0,0,,
1264,-2.039,-13.175999999999998,-3.765,0,0,,
1265,-2.667,-12.863,-3.9219999999999997,0,0,,
1266,-1.725,-13.960999999999999,-2.039,0,0,,
1267,-1.255,-14.431,-2.039,0,0,,
1268,-1.255,-14.902000000000001,-1.882,0,0,,
1269,-1.255,-15.373,-1.882,0,0,,
1270,-0.47100000000000003,-16.157,-2.667,0,0,,
1271,0.157,-16.157,-3.2939999999999996,0,0,,
1272,0.784,-15.843,-6.117999999999999,0,0,,
1273,0.784,-16.627,-6.275,0,0,,
1274,1.569,-17.255,-5.332999999999999,0,0,,
1275,4.235,-17.412,-5.49,0,1,,-30.0
1276,4.5489999999999995,-16.784000000000002,-5.332999999999999,0,0,,
1277,5.02,-15.529000000000002,-5.332999999999999,0,0,,
1278,3.451,-14.745,-3.9219999999999997,0,0,,
1279,-0.157,-13.333,-2.1959999999999997,0,0,,
1280,-1.569,-12.706,-3.608,0,0,,
1281,-3.9219999999999997,-10.353,-8.314,0,0,,
1282,-5.332999999999999,-8.941,-8.627,0,0,,
1283,-4.3919999999999995,-6.587999999999999,-10.824000000000002,0,0,,
1284,-0.314,-3.765,-5.647,0,0,,
1285,1.412,-5.49,-2.353,0,0,,
1286,3.2939999999999996,-7.059,-1.725,0,0,,
1287,4.863,-6.431,-0.314,0,0,,
1288,7.216,-4.706,1.569,0,0,,
1289,4.863,-3.137,2.039,0,0,,
1290,3.137,-2.824,1.882,0,0,,
1291,1.0979999999999999,-2.1959999999999997,1.255,0,0,,
1292,0.784,-2.039,0.941,0,0,,
1293,0.314,-2.1959999999999997,0.627,0,0,,
1294,0.314,-2.98,0.47100000000000003,0,0,,
1295,0.47100000000000003,-3.608,0.941,0,0,,
1296,0.627,-3.9219999999999997,0.784,0,0,,
1297,0.314,-4.235,0.941,0,0,,
1298,0.314,-5.02,0.784,0,0,,
1299,0.47100000000000003,-5.332999999999999,0.784,0,0,,
1300,0.784,-5.961,0.314,0,0,,
1301,0.784,-6.587999999999999,0.47100000000000003,0,0,,
1302,0.0,-7.686,-0.314,0,0,,
1303,-0.627,-8.471,-0.314,0,0,,
1304,-1.725,-8.941,-0.784,0,0,,
1305,-2.1959999999999997,-10.196,-1.412,0,0,,
1306,-3.765,-10.353,-1.882,0,0,,
1307,-5.49,-11.294,-2.1959999999999997,0,0,,
1308,-5.332999999999999,-12.235,-1.882,0,0,,
1309,-5.176,-13.175999999999998,-1.0979999999999999,0,0,,
1310,-5.176,-13.647,-0.627,0,0,,
1311,-6.431,-15.059000000000001,-1.412,0,0,,
1312,-7.686,-15.529000000000002,-2.353,0,0,,
1313,-10.824000000000002,-15.686,-4.863,0,0,,
1314,-10.196,-15.843,-6.117999999999999,0,0,,
1315,-10.51,-16.157,-7.059,0,0,,
1316,-10.51,-17.098,-9.255,0,0,,
1317,-10.824000000000002,-17.569000000000003,-10.039,0,0,,
1318,-11.765,-17.569000000000003,-11.765,0,0,,
1319,-12.549000000000001,-16.941,-12.863,0,0,,
1320,-13.02,-17.255,-16.314,0,0,,
1321,-18.51,-15.373,-13.960999999999999,0,0,,
1322,-18.824,-14.588,-13.49,0,0,,
1323,-18.667,-11.607999999999999,-13.804,0,0,,
1324,-17.882,-9.882,-15.216,0,0,,
1325,-17.412,-5.961,-17.255,0,0,,
1326,-18.98,-3.9219999999999997,-17.725,0,0,,
1327,-22.588,-2.353,-16.471,0,0,,
1328,-22.430999999999997,-3.765,-16.0,0,0,,
1329,-20.235,-5.49,-16.471,0,0,,
1330,2.98,-16.784000000000002,0.784,1,0,30.0,
1331,21.02,-21.804000000000002,2.667,0,0,,
1332,15.373,-18.51,-4.235,0,0,,
1333,2.51,-11.765,-7.216,0,0,,
1334,-4.078,-7.059,-4.5489999999999995,0,0,,
1335,3.2939999999999996,-10.51,-2.039,0,0,,
1336,1.725,-12.078,-1.412,0,0,,
1337,1.569,-10.039,-1.569,0,0,,
1338,1.569,-8.941,0.784,0,0,,
1339,1.569,-9.725,-1.725,0,0,,
1340,2.353,-9.412,-5.647,0,0,,
1341,2.353,-9.882,-4.5489999999999995,0,0,,
1342,2.667,-10.51,-3.765,0,0,,
1343,0.157,-10.51,-1.412,0,0,,
1344,-0.941,-9.255,-1.569,0,0,,
1345,0.314,-7.843,-2.824,0,0,,
1346,1.725,-8.627,-2.98,0,0,,
1347,2.51,-8.783999999999999,-3.608,0,0,,
1348,2.98,-9.255,-2.039,0,0,,
1349,3.9219999999999997,-9.097999999999999,-2.353,0,0,,
1350,2.353,-8.941,-2.98,0,0,,
1351,1.412,-9.255,-3.608,0,0,,
1352,1.0979999999999999,-9.882,-1.882,0,0,,
1353,1.882,-10.196,-2.51,0,0,,
1354,1.0979999999999999,-9.412,-2.824,0,0,,
1355,0.627,-9.412,-2.51,0,0,,
1356,1.0979999999999999,-9.725,-1.882,0,0,,
1357,1.882,-9.412,-2.353,0,0,,
1358,1.725,-9.412,-2.51,0,0,,
1359,0.627,-9.255,-2.51,0,0,,
1360,1.0979999999999999,-9.725,-2.1959999999999997,0,0,,
1361,2.039,-9.568999999999999,-2.51,0,0,,
1362,0.47100000000000003,-9.097999999999999,-3.137,0,0,,
1363,0.314,-9.097999999999999,-3.2939999999999996,0,0,,
1364,1.0979999999999999,-9.725,-2.51,0,0,,
1365,1.255,-9.568999999999999,-3.2939999999999996,0,0,,
1366,0.157,-9.097999999999999,-4.078,0,0,,
1367,-0.627,-8.941,-3.451,0,0,,
1368,0.47100000000000003,-9.568999999999999,-2.51,0,0,,
1369,1.255,-9.412,-3.2939999999999996,0,0,,
1370,0.314,-8.941,-4.078,0,0,,
1371,0.314,-9.412,-4.235,0,0,,
1372,0.941,-9.725,-3.608,0,0,,
1373,1.0979999999999999,-9.412,-3.765,0,0,,
1374,0.157,-8.783999999999999,-3.9219999999999997,0,0,,
1375,-1.412,-8.627,-3.451,0,0,,
1376,-1.725,-8.941,-2.824,0,0,,
1377,-1.569,-8.627,-2.98,0,0,,
1378,-2.824,-8.941,-3.765,0,0,,
1379,-2.98,-9.725,-3.2939999999999996,0,0,,
1380,-1.0979999999999999,-9.882,-2.824,0,0,,
1381,-1.255,-9.568999999999999,-3.2939999999999996,0,0,,
1382,-2.039,-9.255,-3.9219999999999997,0,0,,
1383,-2.1959999999999997,-9.568999999999999,-2.98,0,0,,
1384,-0.627,-9.725,-2.353,0,0,,
1385,-1.0979999999999999,-9.255,-3.137,0,0,,
1386,-2.039,-9.255,-2.98,0,0,,
1387,-1.882,-9.725,-2.353,0,0,,
1388,-1.0979999999999999,-9.725,-2.824,0,0,,
1389,-1.412,-9.568999999999999,-3.608,0,0,,
1390,-1.569,-9.568999999999999,-4.3919999999999995,0,0,,
1391,-1.882,-10.196,-4.078,0,0,,
1392,-1.255,-10.51,-3.608,0,0,,
1393,-1.725,-10.353,-4.706,0,0,,
1394,-2.51,-10.353,-4.078,0,0,,
1395,-2.1959999999999997,-10.51,-3.451,0,0,,
1396,-1.569,-10.51,-3.608,0,0,,
1397,-1.725,-10.667,-3.451,0,0,,
1398,-2.667,-10.98,-3.608,0,0,,
1399,-2.353,-11.294,-3.608,0,0,,
1400,-2.1959999999999997,-11.765,-4.078,0,0,,
1401,-2.51,-12.078,-4.5489999999999995,0,0,,
1402,-2.51,-12.863,-3.765,0,0,,
1403,-1.569,-13.49,-2.667,0,0,,
1404,-0.941,-13.49,-2.667,0,0,,
1405,-0.941,-13.960999999999999,-2.824,0,0,,
1406,-0.784,-14.588,-2.51,0,0,,
1407,0.157,-15.059000000000001,-1.882,0,0,,
1408,0.157,-15.373,-1.882,0,0,,
1409,0.47100000000000003,-16.314,-1.882,0,0,,
1410,0.784,-16.627,-3.2939999999999996,0,0,,
1411,0.157,-16.471,-4.235,0,0,,
1412,-0.314,-16.627,-5.49,0,0,,
1413,0.314,-17.255,-5.176,0,0,,
1414,0.47100000000000003,-17.569000000000003,-4.5489999999999995,0,1,,-30.0
1415,0.627,-17.882,-4.5489999999999995,0,0,,
1416,3.608,-17.098,-6.117999999999999,0,0,,
1417,5.176,-16.471,-6.902,0,0,,
1418,3.765,-15.686,-4.863,0,0,,
1419,2.353,-14.275,-6.431,0,0,,
1420,0.941,-13.49,-8.314,0,0,,
1421,-2.353,-11.607999999999999,-8.314,0,0,,
1422,-1.0979999999999999,-9.882,-8.941,0,0,,
1423,-0.314,-5.332999999999999,-6.745,0,0,,
1424,-1.725,-5.332999999999999,-5.647,0,0,,
1425,-1.412,-7.686,-3.608,0,0,,
1426,0.941,-8.314,-2.667,0,0,,
1427,4.863,-6.117999999999999,-0.314,0,0,,
1428,5.332999999999999,-3.9219999999999997,0.47100000000000003,0,0,,
1429,5.02,-3.608,0.47100000000000003,0,0,,
1430,4.235,-2.98,0.157,0,0,,
1431,3.451,-2.51,0.0,0,0,,
1432,2.98,-2.039,-0.314,0,0,,
1433,2.51,-2.1959999999999997,-0.314,0,0,,
1434,1.725,-2.98,-0.627,0,0,,
1435,1.412,-3.765,-0.314,0,0,,
1436,1.0979999999999999,-4.235,-0.47100000000000003,0,0,,
1437,0.941,-5.02,-0.47100000000000003,0,0,,
1438,1.0979999999999999,-5.02,-0.627,0,0,,
1439,1.412,-5.176,-0.784,0,0,,
1440,0.941,-5.647,-0.941,0,0,,
1441,1.0979999999999999,-6.117999999999999,-1.725,0,0,,
1442,0.941,-6.275,-1.882,0,0,,
1443,0.784,-7.529,-2.824,0,0,,
1444,0.627,-8.783999999999999,-3.765,0,0,,
1445,0.157,-9.568999999999999,-4.3919999999999995,0,0,,
1446,-0.627,-10.51,-5.176,0,0,,
1447,-1.255,-11.137,-5.176,0,0,,
1448,-2.98,-12.549000000000001,-5.02,0,0,,
1449,-3.2939999999999996,-13.175999999999998,-5.332999999999999,0,0,,
1450,-4.706,-15.373,-6.587999999999999,0,0,,
1451,-8.0,-16.627,-9.097999999999999,0,0,,
1452,-9.725,-17.098,-10.039,0,0,,
1453,-12.863,-17.255,-11.450999999999999,0,0,,
1454,-14.275,-17.569000000000003,-12.392000000000001,0,0,,
1455,-15.059000000000001,-18.667,-13.175999999999998,0,0,,
1456,-14.902000000000001,-18.352999999999998,-13.333,0,0,,
1457,-14.431,-17.569000000000003,-13.02,0,0,,
1458,-14.118,-17.412,-12.549000000000001,0,0,,
1459,-15.843,-16.784000000000002,-10.824000000000002,0,0,,
1460,-16.471,-16.471,-9.882,0,0,,
1461,-16.471,-15.529000000000002,-10.353,0,0,,
1462,-16.941,-11.765,-11.922,0,0,,
1463,-17.882,-9.725,-13.960999999999999,0,0,,
1464,-21.02,-5.02,-15.059000000000001,0,0,,
1465,-22.901999999999997,-3.765,-13.647,0,0,,
1466,-24.156999999999996,-3.451,-10.353,0,0,,
1467,-21.333000000000002,-5.49,-8.157,0,0,,
1468,-19.608,-6.275,-7.372999999999999,0,0,,
1469,-16.784000000000002,-7.529,-6.902,0,0,,
1470,-13.804,-9.882,-7.059,0,0,,
1471,6.117999999999999,-14.275,-0.47100000000000003,0,0,,
1472,24.0,-15.843,0.47100000000000003,1,0,30.0,
1473,57.882,-18.824,0.784,0,0,,
1474,35.451,-17.098,-1.569,0,0,,
1475,-18.039,-10.824000000000002,-5.961,0,0,,
1476,0.157,-13.175999999999998,-4.3919999999999995,0,0,,
1477,-0.941,-17.412,-5.02,0,0,,
1478,-3.765,-11.450999999999999,-4.078,0,0,,
1479,-1.569,-8.0,-1.412,0,0,,
1480,1.725,-8.471,0.627,0,0,,
1481,0.0,-9.255,-0.941,0,0,,
1482,-0.784,-9.882,-4.3919999999999995,0,0,,
1483,-0.157,-10.196,-3.2939999999999996,0,0,,
1484,1.569,-12.392000000000001,-2.824,0,0,,
1485,0.784,-11.450999999999999,-1.725,0,0,,
1486,0.941,-10.039,-1.725,0,0,,
1487,-0.314,-8.314,-4.5489999999999995,0,0,,
1488,-1.0979999999999999,-8.627,-4.706,0,0,,
1489,-1.569,-10.196,-2.98,0,0,,
1490,0.157,-10.353,-2.1959999999999997,0,0,,
1491,2.1959999999999997,-8.627,-2.51,0,0,,
1492,2.667,-8.471,-3.2939999999999996,0,0,,
1493,2.51,-8.941,-2.824,0,0,,
1494,4.078,-10.196,-2.353,0,0,,
1495,3.608,-9.882,-2.667,0,0,,
1496,3.451,-8.941,-2.353,0,0,,
1497,2.98,-8.471,-2.353,0,0,,
1498,3.451,-8.627,-2.353,0,0,,
1499,2.353,-8.783999999999999,-2.667,0,0,,
1500,1.569,-8.627,-3.608,0,0,,
1501,2.824,-9.255,-2.51,0,0,,
1502,2.98,-9.568999999999999,-2.51,0,0,,
1503,0.784,-8.941,-2.824,0,0,,
1504,0.47100000000000003,-9.097999999999999,-2.98,0,0,,
1505,0.784,-9.255,-1.725,0,0,,
1506,1.725,-9.568999999999999,-2.51,0,0,,
1507,0.941,-9.568999999999999,-3.137,0,0,,
1508,-0.627,-8.941,-3.608,0,0,,
1509,0.0,-9.412,-2.824,0,0,,
1510,0.784,-9.097999999999999,-2.98,0,0,,
1511,0.47100000000000003,-8.783999999999999,-3.2939999999999996,0,0,,
1512,-0.314,-9.255,-3.2939999999999996,0,0,,
1513,0.157,-9.412,-2.98,0,0,,
1514,0.784,-9.412,-4.235,0,0,,
1515,-0.157,-9.097999999999999,-4.235,0,0,,
1516,-1.0979999999999999,-9.568999999999999,-4.078,0,0,,
1517,-0.314,-9.725,-3.765,0,0,,
1518,0.627,-9.412,-4.5489999999999995,0,0,,
1519,-0.784,-9.882,-2.98,0,0,,
1520,-1.569,-10.353,-2.353,0,0,,
1521,-0.941,-10.667,-1.725,0,0,,
1522,-0.314,-10.51,-2.51,0,0,,
1523,-0.941,-9.412,-3.137,0,0,,
1524,-1.569,-10.196,-2.039,0,0,,
1525,-0.941,-10.353,-1.569,0,0,,
1526,-0.47100000000000003,-9.255,-3.451,0,0,,
1527,-0.941,-9.255,-3.9219999999999997,0,0,,
1528,-1.569,-9.568999999999999,-3.451,0,0,,
1529,-0.627,-10.039,-2.98,0,0,,
1530,-0.314,-9.725,-4.3919999999999995,0,0,,
1531,-0.47100000000000003,-9.725,-4.235,0,0,,
1532,-1.412,-10.039,-4.078,0,0,,
1533,-0.627,-10.824000000000002,-4.078,0,0,,
1534,-1.412,-10.353,-4.863,0,0,,
1535,-2.1959999999999997,-9.882,-4.235,0,0,,
1536,-2.1959999999999997,-10.039,-3.9219999999999997,0,0,,
1537,-1.412,-10.353,-3.608,0,0,,
1538,-1.725,-9.882,-4.078,0,0,,
1539,-3.137,-10.039,-3.451,0,0,,
1540,-2.98,-10.353,-2.51,0,0,,
1541,-2.353,-10.51,-3.137,0,0,,
1542,-2.824,-10.51,-3.9219999999999997,0,0,,
1543,-2.824,-10.667,-3.9219999999999997,0,0,,
1544,-2.353,-11.450999999999999,-3.137,0,0,,
1545,-1.882,-12.078,-2.98,0,0,,
1546,-1.255,-12.549000000000001,-3.137,0,0,,
1547,-1.412,-13.175999999999998,-3.2939999999999996,0,0,,
1548,-0.784,-14.588,-1.412,0,0,,
1549,0.0,-15.843,-1.882,0,0,,
1550,-0.314,-16.314,-2.1959999999999997,0,0,,
1551,-0.47100000000000003,-16.941,-2.51,0,0,,
1552,0.157,-17.725,-3.2939999999999996,0,0,,
1553,0.627,-17.412,-4.235,0,0,,
1554,0.627,-17.098,-4.863,0,0,,
1555,1.882,-17.255,-5.961,0,0,,
1556,2.1959999999999997,-17.569000000000003,-5.961,0,1,,-30.0
1557,1.569,-17.098,-5.647,0,0,,
1558,1.255,-16.0,-4.3919999999999995,0,0,,
1559,0.784,-15.686,-3.9219999999999997,0,0,,
1560,0.0,-14.745,-5.176,0,0,,
1561,0.314,-13.960999999999999,-6.745,0,0,,
1562,-2.039,-11.607999999999999,-8.157,0,0,,
1563,-2.98,-10.196,-8.471,0,0,,
1564,-1.0979999999999999,-7.216,-9.725,0,0,,
1565,1.569,-4.235,-6.745,0,0,,
1566,0.0,-4.863,-6.902,0,0,,
1567,3.2939999999999996,-7.529,-2.824,0,0,,
1568,4.706,-6.745,-1.882,0,0,,
1569,5.176,-4.078,-0.157,0,0,,
1570,4.3919999999999995,-3.2939999999999996,0.157,0,0,,
1571,2.51,-2.51,0.0,0,0,,
1572,1.725,-1.412,-0.314,0,0,,
1573,1.0979999999999999,-1.412,-0.157,0,0,,
1574,1.569,-1.882,-0.47100000000000003,0,0,,
1575,1.569,-2.1959999999999997,-0.47100000000000003,0,0,,
1576,1.0979999999999999,-3.2939999999999996,0.0,0,0,,
1577,0.941,-3.608,0.0,0,0,,
1578,0.314,-4.235,0.157,0,0,,
1579,0.47100000000000003,-4.706,0.0,0,0,,
1580,0.47100000000000003,-4.863,0.0,0,0,,
1581,0.784,-5.332999999999999,-0.314,0,0,,
1582,0.784,-5.647,-0.784,0,0,,
1583,0.47100000000000003,-6.117999999999999,-1.882,0,0,,
1584,0.47100000000000003,-6.275,-2.039,0,0,,
1585,0.47100000000000003,-7.372999999999999,-2.98,0,0,,
1586,0.47100000000000003,-7.686,-3.137,0,0,,
1587,0.627,-8.627,-3.765,0,0,,
1588,0.47100000000000003,-8.941,-4.078,0,0,,
1589,-0.784,-10.196,-4.706,0,0,,
1590,-2.667,-11.450999999999999,-4.5489999999999995,0,0,,
1591,-3.137,-12.235,-4.706,0,0,,
1592,-3.9219999999999997,-14.431,-5.647,0,0,,
1593,-4.863,-15.059000000000001,-5.961,0,0,,
1594,-7.686,-16.157,-8.157,0,0,,
1595,-8.471,-16.157,-9.255,0,0,,
1596,-9.255,-16.471,-10.98,0,0,,
1597,-10.196,-16.314,-11.922,0,0,,
1598,-11.294,-16.471,-13.02,0,0,,
1599,-12.706,-16.0,-13.333,0,0,,
1600,-12.863,-15.529000000000002,-13.02,0,0,,
1601,-13.49,-16.0,-11.607999999999999,0,0,,
1602,-14.275,-16.0,-11.137,0,0,,
1603,-16.627,-15.843,-10.039,0,0,,
1604,-16.941,-15.216,-10.039,0,0,,
1605,-15.529000000000002,-12.549000000000001,-10.667,0,0,,
1606,-15.686,-9.412,-13.02,0,0,,
1607,-16.941,-7.216,-13.647,0,0,,
1608,-20.235,-4.3919999999999995,-13.333,0,0,,
1609,-21.333000000000002,-3.451,-12.549000000000001,0,0,,
1610,-20.549,-5.49,-11.294,0,0,,
1611,-20.549,-5.961,-10.667,0,0,,
1612,-18.195999999999998,-5.49,-10.039,0,0,,
1613,0.941,-12.863,-2.039,0,0,,
1614,19.294,-16.0,-1.0979999999999999,1,0,30.0,
1615,42.51,-22.430999999999997,4.5489999999999995,0,0,,
1616,15.529000000000002,-19.451,-3.137,0,0,,
1617,-14.431,-10.196,-5.803999999999999,0,0,,
1618,-7.059,-10.196,-2.98,0,0,,
1619,0.0,-15.059000000000001,-1.0979999999999999,0,0,,
1620,-1.882,-13.49,-2.51,0,0,,
1621,-0.157,-7.372999999999999,0.157,0,0,,
1622,-0.627,-9.255,0.941,0,0,,
1623,-0.314,-10.353,-0.47100000000000003,0,0,,
1624,0.314,-10.039,-6.587999999999999,0,0,,
1625,-0.784,-10.039,-7.059,0,0,,
1626,-0.47100000000000003,-12.706,-4.706,0,0,,
1627,0.47100000000000003,-13.333,-2.824,0,0,,
1628,1.882,-10.196,-2.51,0,0,,
1629,1.255,-7.372999999999999,-5.49,0,0,,
1630,-0.157,-7.059,-4.706,0,0,,
1631,1.412,-8.941,-2.667,0,0,,
1632,2.51,-8.471,-2.1959999999999997,0,0,,
1633,3.608,-8.314,-2.98,0,0,,
1634,2.98,-8.941,-2.667,0,0,,
1635,3.765,-10.196,-1.725,0,0,,
1636,3.2939999999999996,-10.196,-1.882,0,0,,
1637,1.412,-9.725,-2.51,0,0,,
1638,1.725,-9.568999999999999,-1.725,0,0,,
1639,2.667,-9.568999999999999,-1.882,0,0,,
1640,1.569,-8.941,-2.667,0,0,,
1641,1.0979999999999999,-8.471,-3.2939999999999996,0,0,,
1642,1.882,-9.412,-2.353,0,0,,
1643,2.98,-9.725,-2.353,0,0,,
1644,2.353,-9.725,-2.51,0,0,,
1645,1.412,-9.412,-2.98,0,0,,
1646,0.627,-9.725,-2.039,0,0,,
1647,0.627,-9.255,-2.51,0,0,,
1648,0.47100000000000003,-9.097999999999999,-2.824,0,0,,
1649,-0.314,-9.097999999999999,-3.451,0,0,,
1650,0.157,-9.412,-2.667,0,0,,
1651,0.941,-9.255,-3.608,0,0,,
1652,0.784,-9.255,-3.2939999999999996,0,0,,
1653,-0.47100000000000003,-8.941,-4.235,0,0,,
1654,0.627,-9.568999999999999,-3.137,0,0,,
1655,0.941,-9.097999999999999,-4.078,0,0,,
1656,0.0,-8.941,-4.235,0,0,,
1657,-0.627,-9.097999999999999,-4.706,0,0,,
1658,-0.314,-9.882,-3.608,0,0,,
1659,0.157,-9.725,-4.3919999999999995,0,0,,
1660,-0.47100000000000003,-9.882,-3.451,0,0,,
1661,-0.941,-10.039,-3.2939999999999996,0,0,,
1662,-1.569,-10.51,-2.824,0,0,,
1663,-0.784,-9.882,-2.98,0,0,,
1664,-0.941,-9.412,-3.2939999999999996,0,0,,
1665,-1.882,-9.568999999999999,-2.824,0,0,,
1666,-1.569,-9.725,-2.51,0,0,,
1667,-0.941,-9.412,-3.451,0,0,,
1668,-1.255,-9.255,-3.9219999999999997,0,0,,
1669,-1.882,-9.568999999999999,-3.608,0,0,,
1670,-0.47100000000000003,-9.725,-2.51,0,0,,
1671,-0.157,-9.255,-3.451,0,0,,
1672,-1.0979999999999999,-8.941,-3.608,0,0,,
1673,-1.725,-8.941,-3.137,0,0,,
1674,-0.157,-9.568999999999999,-2.039,0,0,,
1675,-0.157,-9.255,-2.824,0,0,,
1676,-1.0979999999999999,-9.412,-3.451,0,0,,
1677,-1.255,-9.725,-3.451,0,0,,
1678,-0.47100000000000003,-10.51,-3.608,0,0,,
1679,-1.255,-10.039,-4.5489999999999995,0,0,,
1680,-1.882,-9.725,-4.5489999999999995,0,0,,
1681,-2.667,-10.51,-3.608,0,0,,
1682,-2.039,-10.353,-2.824,0,0,,
1683,-2.1959999999999997,-10.353,-3.137,0,0,,
1684,-2.667,-10.51,-3.2939999999999996,0,0,,
1685,-3.137,-11.137,-3.137,0,0,,
1686,-2.1959999999999997,-11.607999999999999,-2.824,0,0,,
1687,-2.353,-12.078,-3.2939999999999996,0,0,,
1688,-2.98,-13.02,-3.137,0,0,,
1689,-2.353,-13.960999999999999,-2.353,0,0,,
1690,-0.47100000000000003,-14.431,-2.51,0,0,,
1691,-0.47100000000000003,-14.118,-2.667,0,0,,
1692,-0.941,-15.529000000000002,-2.1959999999999997,0,0,,
1693,-0.314,-16.157,-2.039,0,0,,
1694,0.941,-16.941,-2.1959999999999997,0,0,,
1695,1.569,-17.412,-3.765,0,0,,
1696,1.412,-17.725,-4.3919999999999995,0,0,,
1697,0.941,-17.725,-5.49,0,0,,
1698,0.47100000000000003,-17.412,-5.961,0,0,,
1699,-0.314,-17.882,-5.176,0,1,,-30.0
1700,0.157,-17.569000000000003,-6.117999999999999,0,0,,
1701,2.353,-17.098,-7.059,0,0,,
1702,2.667,-16.941,-5.49,0,0,,
1703,3.2939999999999996,-16.784000000000002,-5.332999999999999,0,0,,
1704,2.039,-14.588,-6.902,0,0,,
1705,0.314,-13.175999999999998,-7.059,0,0,,
1706,-2.039,-10.824000000000002,-8.941,0,0,,
1707,-2.51,-9.882,-9.255,0,0,,
1708,1.725,-7.372999999999999,-7.059,0,0,,
1709,0.47100000000000003,-6.275,-6.745,0,0,,
1710,0.314,-8.0,-2.824,0,0,,
1711,4.3919999999999995,-8.0,-1.0979999999999999,0,0,,
1712,4.863,-6.587999999999999,-0.47100000000000003,0,0,,
1713,4.706,-4.706,0.47100000000000003,0,0,,
1714,4.235,-4.235,0.314,0,0,,
1715,2.667,-3.137,0.157,0,0,,
1716,2.1959999999999997,-2.824,0.0,0,0,,
1717,1.725,-2.824,0.0,0,0,,
1718,1.569,-3.2939999999999996,0.47100000000000003,0,0,,
1719,0.784,-3.765,0.157,0,0,,
1720,0.157,-4.078,0.47100000000000003,0,0,,
1721,0.157,-4.235,0.314,0,0,,
1722,0.157,-4.706,0.314,0,0,,
1723,0.47100000000000003,-4.863,0.47100000000000003,0,0,,
1724,0.784,-5.02,0.0,0,0,,
1725,0.941,-5.332999999999999,0.0,0,0,,
1726,0.784,-6.117999999999999,-0.47100000000000003,0,0,,
1727,0.0,-6.902,-1.412,0,0,,
1728,2.667,-9.255,0.157,0,0,,
1729,-4.235,-9.412,-3.137,0,0,,
1730,-0.314,-7.529,-2.51,0,0,,
1731,-0.314,-9.568999999999999,-3.451,0,0,,
1732,-0.157,-9.725,-3.608,0,0,,
1733,-1.412,-10.51,-4.078,0,0,,
1734,-1.882,-11.137,-4.235,0,0,,
1735,-2.98,-13.175999999999998,-4.235,0,0,,
1736,-4.706,-15.059000000000001,-5.332999999999999,0,0,,
1737,-6.275,-15.686,-6.587999999999999,0,0,,
1738,-10.039,-15.843,-9.882,0,0,,
1739,-10.98,-15.843,-10.667,0,0,,
1740,-11.450999999999999,-16.314,-12.863,0,0,,
1741,-11.607999999999999,-16.471,-13.333,0,0,,
1742,-12.863,-16.471,-13.960999999999999,0,0,,
1743,-16.471,-17.098,-13.804,0,0,,
1744,-17.725,-17.098,-13.02,0,0,,
1745,-18.98,-16.784000000000002,-11.607999999999999,0,0,,
1746,-19.294,-15.686,-10.51,0,0,,
1747,-18.98,-14.745,-9.568999999999999,0,0,,
1748,-17.725,-13.647,-10.196,0,0,,
1749,-15.059000000000001,-10.667,-12.078,0,0,,
1750,-14.118,-8.941,-13.960999999999999,0,0,,
1751,-16.471,-4.3919999999999995,-16.157,0,0,,
1752,-19.765,-2.353,-14.118,0,0,,
1753,-20.549,-2.1959999999999997,-12.392000000000001,0,0,,
1754,-20.706,-4.5489999999999995,-9.097999999999999,0,0,,
1755,-17.098,-8.471,-9.097999999999999,0,0,,
1756,-16.314,-7.529,-6.431,0,0,,
1757,-8.627,-8.783999999999999,-2.1959999999999997,1,0,30.0,
1758,24.471,-16.941,1.412,0,0,,
1759,51.294,-20.549,2.1959999999999997,0,0,,
1760,22.430999999999997,-19.294,-2.667,0,0,,
1761,-16.471,-10.196,-8.0,0,0,,
1762,-4.706,-11.294,-1.882,0,0,,
1763,-2.1959999999999997,-17.255,-1.725,0,0,,
1764,-5.647,-15.216,-2.667,0,0,,
1765,-1.569,-5.49,-2.51,0,0,,
1766,0.784,-4.235,-0.784,0,0,,
1767,-2.039,-9.255,-4.706,0,0,,
1768,-3.765,-12.549000000000001,-3.608,0,0,,
1769,-2.353,-13.804,-1.882,0,0,,
1770,-0.157,-12.706,-1.725,0,0,,
1771,0.314,-11.294,-1.882,0,0,,
1772,1.255,-9.255,-2.98,0,0,,
1773,1.569,-8.314,-3.608,0,0,,
1774,-0.47100000000000003,-7.686,-4.5489999999999995,0,0,,
1775,-0.314,-8.627,-2.824,0,0,,
1776,2.039,-9.255,-2.667,0,0,,
1777,4.078,-8.941,-2.51,0,0,,
1778,4.706,-8.471,-3.137,0,0,,
1779,3.9219999999999997,-8.941,-2.51,0,0,,
1780,4.078,-9.568999999999999,-2.039,0,0,,
1781,2.824,-9.412,-2.667,0,0,,
1782,1.725,-9.097999999999999,-3.137,0,0,,
1783,0.157,-8.941,-2.667,0,0,,
1784,1.412,-9.568999999999999,-2.51,0,0,,
1785,0.627,-9.255,-2.51,0,0,,
1786,1.0979999999999999,-9.568999999999999,-2.353,0,0,,
1787,1.0979999999999999,-9.882,-2.039,0,0,,
1788,3.451,-10.196,-1.255,0,0,,
1789,1.882,-9.412,-1.725,0,0,,
1790,0.314,-9.568999999999999,-2.51,0,0,,
1791,-0.157,-9.568999999999999,-2.1959999999999997,0,0,,
1792,1.255,-9.725,-1.882,0,0,,
1793,-0.157,-9.097999999999999,-3.137,0,0,,
1794,0.0,-9.097999999999999,-3.608,0,0,,
1795,0.47100000000000003,-9.255,-2.51,0,0,,
1796,1.725,-9.255,-3.137,0,0,,
1797,0.627,-8.941,-3.451,0,0,,
1798,-0.157,-8.783999999999999,-4.078,0,0,,
1799,-0.47100000000000003,-9.412,-2.667,0,0,,
1800,-0.157,-9.097999999999999,-4.078,0,0,,
1801,-0.157,-8.941,-4.078,0,0,,
1802,-1.412,-9.097999999999999,-3.9219999999999997,0,0,,
1803,-1.255,-9.568999999999999,-2.98,0,0,,
1804,-0.47100000000000003,-9.412,-3.765,0,0,,
1805,-0.627,-9.412,-3.765,0,0,,
1806,-2.1959999999999997,-9.568999999999999,-3.9219999999999997,0,0,,
1807,-1.569,-9.882,-3.137,0,0,,
1808,-0.157,-9.882,-3.608,0,0,,
1809,-2.1959999999999997,-9.725,-3.2939999999999996,0,0,,
1810,-2.1959999999999997,-9.882,-3.2939999999999996,0,0,,
1811,-0.784,-10.039,-2.51,0,0,,
1812,-0.47100000000000003,-9.568999999999999,-3.2939999999999996,0,0,,
1813,-0.784,-9.097999999999999,-3.608,0,0,,
1814,-1.569,-9.255,-3.9219999999999997,0,0,,
1815,-0.47100000000000003,-9.725,-2.51,0,0,,
1816,-0.47100000000000003,-9.255,-3.765,0,0,,
1817,-0.627,-9.097999999999999,-4.3919999999999995,0,0,,
1818,-0.941,-9.882,-3.9219999999999997,0,0,,
1819,-0.627,-10.196,-3.9219999999999997,0,0,,
1820,-0.627,-9.725,-5.02,0,0,,
1821,-1.0979999999999999,-9.882,-5.02,0,0,,
1822,-1.882,-10.196,-4.706,0,0,,
1823,-1.725,-10.353,-4.078,0,0,,
1824,-1.412,-9.882,-4.235,0,0,,
1825,-2.51,-9.725,-4.235,0,0,,
1826,-2.667,-10.196,-3.137,0,0,,
1827,-2.039,-10.196,-2.98,0,0,,
1828,-2.1959999999999997,-9.882,-3.9219999999999997,0,0,,
1829,-3.451,-10.196,-4.3919999999999995,0,0,,
1830,-4.078,-10.353,-4.235,0,0,,
1831,-3.137,-11.450999999999999,-3.2939999999999996,0,0,,
1832,-2.824,-11.922,-3.137,0,0,,
1833,-2.98,-12.392000000000001,-3.2939999999999996,0,0,,
1834,-2.353,-12.863,-2.353,0,0,,
1835,-2.1959999999999997,-13.02,-1.882,0,0,,
1836,-2.039,-13.333,-2.1959999999999997,0,0,,
1837,-1.882,-13.647,-2.51,0,0,,
1838,-1.569,-14.118,-1.412,0,0,,
1839,-1.412,-14.745,-1.569,0,0,,
1840,-0.47100000000000003,-15.529000000000002,-1.725,0,0,,
1841,-0.47100000000000003,-15.059000000000001,-3.2939999999999996,0,0,,
1842,-0.784,-15.373,-4.235,0,0,,
1843,0.314,-16.471,-4.5489999999999995,0,0,,
1844,0.941,-16.784000000000002,-4.863,0,0,,
1845,1.882,-16.941,-6.117999999999999,0,1,,-30.0
1846,1.725,-16.784000000000002,-5.647,0,0,,
1847,2.353,-16.0,-5.803999999999999,0,0,,
1848,2.039,-15.059000000000001,-4.5489999999999995,0,0,,
1849,0.784,-14.588,-2.98,0,0,,
1850,-1.882,-12.863,-4.5489999999999995,0,0,,
1851,-2.824,-11.922,-6.745,0,0,,
1852,-3.608,-9.882,-9.097999999999999,0,0,,
1853,-2.824,-9.097999999999999,-9.412,0,0,,
1854,0.314,-6.117999999999999,-7.216,0,0,,
1855,1.725,-4.706,-5.176,0,0,,
1856,0.941,-7.059,-3.2939999999999996,0,0,,
1857,4.3919999999999995,-7.059,-0.627,0,0,,
1858,5.332999999999999,-6.117999999999999,0.0,0,0,,
1859,4.078,-4.078,0.627,0,0,,
1860,3.137,-3.9219999999999997,0.627,0,0,,
1861,1.255,-2.98,0.314,0,0,,
1862,0.941,-2.51,0.314,0,0,,
1863,0.627,-3.137,0.157,0,0,,
1864,0.784,-4.235,0.47100000000000003,0,0,,
1865,0.627,-4.706,0.784,0,0,,
1866,0.627,-5.647,1.0979999999999999,0,0,,
1867,0.314,-6.117999999999999,0.941,0,0,,
1868,0.47100000000000003,-6.275,1.412,0,0,,
1869,0.47100000000000003,-6.587999999999999,1.882,0,0,,
1870,1.0979999999999999,-7.059,1.255,0,0,,
1871,0.941,-7.216,1.0979999999999999,0,0,,
1872,0.47100000000000003,-7.843,0.784,0,0,,
1873,-0.47100000000000003,-8.941,0.0,0,0,,
1874,-0.941,-9.568999999999999,0.0,0,0,,
1875,-1.569,-10.039,-0.314,0,0,,
1876,-1.725,-10.196,-0.47100000000000003,0,0,,
1877,-2.1959999999999997,-10.98,-0.784,0,0,,
1878,-2.667,-11.450999999999999,-1.255,0,0,,
1879,-3.765,-12.235,-1.882,0,0,,
1880,-4.3919999999999995,-12.706,-2.039,0,0,,
1881,-5.961,-13.49,-2.039,0,0,,
1882,-7.529,-14.431,-2.667,0,0,,
1883,-9.097999999999999,-14.902000000000001,-3.608,0,0,,
1884,-12.078,-15.373,-6.587999999999999,0,0,,
1885,-13.647,-15.529000000000002,-8.157,0,0,,
1886,-15.373,-15.686,-10.98,0,0,,
1887,-16.157,-16.0,-12.078,0,0,,
1888,-15.686,-16.627,-13.175999999999998,0,0,,
1889,-15.686,-16.157,-14.118,0,0,,
1890,-15.843,-15.686,-14.588,0,0,,
1891,-16.157,-14.275,-14.588,0,0,,
1892,-16.0,-13.175999999999998,-14.745,0,0,,
1893,-16.0,-12.235,-13.960999999999999,0,0,,
1894,-16.157,-11.137,-14.275,0,0,,
1895,-16.784000000000002,-8.941,-14.902000000000001,0,0,,
1896,-17.725,-7.216,-15.059000000000001,0,0,,
1897,-18.824,-4.3919999999999995,-14.902000000000001,0,0,,
1898,-19.294,-3.451,-13.333,0,0,,
1899,-17.725,-5.49,-12.863,0,0,,
1900,-17.098,-6.431,-12.078,0,0,,
1901,-16.784000000000002,-5.961,-10.824000000000002,0,0,,
1902,3.137,-14.902000000000001,1.255,0,0,,
1903,19.137,-18.667,5.647,1,0,30.0,
1904,45.961000000000006,-18.824,3.608,0,0,,
1905,7.059,-12.392000000000001,-3.2939999999999996,0,0,,
1906,-8.941,-9.255,-3.2939999999999996,0,0,,
1907,-1.0979999999999999,-10.824000000000002,-1.412,0,0,,
1908,-0.941,-12.863,-2.1959999999999997,0,0,,
1909,-4.235,-12.235,-2.667,0,0,,
1910,-4.078,-9.097999999999999,-1.255,0,0,,
1911,0.0,-7.686,0.47100000000000003,0,0,,
1912,0.0,-9.255,0.0,0,0,,
1913,-2.353,-10.51,-1.882,0,0,,
1914,-3.451,-10.667,-4.235,0,0,,
1915,-3.2939999999999996,-10.51,-3.608,0,0,,
1916,-0.47100000000000003,-9.882,-3.608,0,0,,
1917,0.314,-10.51,-2.824,0,0,,
1918,0.314,-9.882,-3.451,0,0,,
1919,-0.314,-9.255,-4.235,0,0,,
1920,-2.1959999999999997,-8.471,-3.765,0,0,,
1921,-1.0979999999999999,-9.725,-3.137,0,0,,
1922,-0.314,-9.725,-2.824,0,0,,
1923,1.255,-9.097999999999999,-3.608,0,0,,
1924,1.255,-9.412,-2.667,0,0,,
1925,3.137,-10.51,-1.725,0,0,,
1926,2.98,-10.353,-1.882,0,0,,
1927,1.255,-9.882,-2.039,0,0,,
1928,0.0,-9.882,-2.039,0,0,,
1929,0.784,-10.196,-1.725,0,0,,
1930,0.314,-8.941,-2.824,0,0,,
1931,0.627,-8.471,-3.608,0,0,,
1932,-0.157,-8.941,-3.2939999999999996,0,0,,
1933,1.255,-9.097999999999999,-3.137,0,0,,
1934,1.412,-9.097999999999999,-2.98,0,0,,
1935,1.569,-9.255,-3.137,0,0,,
1936,0.941,-9.412,-2.824,0,0,,
1937,2.1959999999999997,-9.725,-2.667,0,0,,
1938,1.255,-8.783999999999999,-3.137,0,0,,
1939,-0.47100000000000003,-9.412,-3.451,0,0,,
1940,-0.47100000000000003,-9.412,-2.98,0,0,,
1941,1.0979999999999999,-9.412,-2.98,0,0,,
1942,0.47100000000000003,-8.783999999999999,-3.137,0,0,,
1943,0.0,-8.941,-3.137,0,0,,
1944,-0.157,-9.097999999999999,-3.137,0,0,,
1945,1.0979999999999999,-9.725,-3.137,0,0,,
1946,0.157,-8.783999999999999,-4.5489999999999995,0,0,,
1947,-1.255,-8.941,-4.706,0,0,,
1948,-0.627,-9.725,-3.451,0,0,,
1949,0.157,-9.412,-4.078,0,0,,
1950,0.0,-8.783999999999999,-4.706,0,0,,
1951,-0.784,-9.255,-3.765,0,0,,
1952,-0.941,-9.568999999999999,-2.353,0,0,,
1953,-1.0979999999999999,-9.725,-2.039,0,0,,
1954,-2.667,-9.412,-3.137,0,0,,
1955,-2.98,-9.725,-3.451,0,0,,
1956,-2.51,-10.196,-2.51,0,0,,
1957,-1.255,-9.725,-3.451,0,0,,
1958,-1.412,-9.568999999999999,-3.2939999999999996,0,0,,
1959,-1.882,-9.568999999999999,-3.2939999999999996,0,0,,
1960,-1.255,-9.725,-2.51,0,0,,
1961,-0.157,-9.882,-3.451,0,0,,
1962,-1.0979999999999999,-9.568999999999999,-4.078,0,0,,
1963,-1.569,-9.725,-3.9219999999999997,0,0,,
1964,-0.784,-10.51,-2.98,0,0,,
1965,-0.47100000000000003,-10.196,-4.235,0,0,,
1966,-1.569,-9.725,-4.863,0,0,,
1967,-2.039,-10.353,-4.235,0,0,,
1968,-1.255,-10.667,-3.765,0,0,,
1969,-1.0979999999999999,-10.353,-3.9219999999999997,0,0,,
1970,-2.039,-10.039,-4.078,0,0,,
1971,-2.667,-10.353,-3.137,0,0,,
1972,-2.039,-10.98,-2.98,0,0,,
1973,-2.039,-10.824000000000002,-3.608,0,0,,
1974,-2.824,-11.137,-4.078,0,0,,
1975,-2.51,-11.922,-3.451,0,0,,
1976,-2.1959999999999997,-12.078,-3.451,0,0,,
1977,-2.667,-12.078,-3.451,0,0,,
1978,-2.353,-12.549000000000001,-2.824,0,0,,
1979,-2.1959999999999997,-12.706,-2.51,0,0,,
1980,0.0,-13.960999999999999,-1.412,0,0,,
1981,0.0,-13.333,-1.569,0,0,,
1982,-0.627,-13.804,-0.784,0,0,,
1983,0.0,-14.745,-0.47100000000000003,0,0,,
1984,0.941,-15.373,-1.412,0,0,,
1985,0.314,-15.373,-2.039,0,0,,
1986,-0.157,-15.686,-2.98,0,0,,
1987,-0.314,-16.157,-4.3919999999999995,0,0,,
1988,0.314,-16.157,-4.5489999999999995,0,0,,
1989,2.039,-16.784000000000002,-4.863,0,0,,
1990,2.1959999999999997,-16.941,-5.02,0,1,,-30.0
1991,1.882,-17.255,-4.235,0,0,,
1992,2.824,-16.784000000000002,-4.863,0,0,,
1993,3.451,-15.686,-5.49,0,0,,
1994,3.9219999999999997,-15.529000000000002,-3.137,0,0,,
1995,1.569,-14.588,-3.9219999999999997,0,0,,
1996,-0.784,-12.706,-7.216,0,0,,
1997,-2.667,-11.607999999999999,-8.157,0,0,,
1998,-2.667,-9.725,-9.568999999999999,0,0,,
1999,-1.0979999999999999,-6.902,-9.255,0,0,,
2000,-1.0979999999999999,-5.803999999999999,-6.587999999999999,0,0,,
2001,-0.47100000000000003,-7.059,-4.863,0,0,,
2002,4.706,-8.314,-1.0979999999999999,0,0,,
2003,7.059,-5.332999999999999,0.784,0,0,,
2004,6.587999999999999,-3.9219999999999997,1.255,0,0,,
2005,3.765,-3.451,0.941,0,0,,
2006,2.667,-2.824,0.627,0,0,,
2007,2.039,-2.1959999999999997,0.47100000000000003,0,0,,
2008,2.039,-2.353,0.47100000000000003,0,0,,
2009,1.412,-3.765,0.941,0,0,,
2010,1.0979999999999999,-4.5489999999999995,0.47100000000000003,0,0,,
2011,0.157,-5.176,1.0979999999999999,0,0,,
2012,0.0,-5.647,1.255,0,0,,
2013,0.314,-5.961,1.569,0,0,,
2014,0.314,-6.745,1.725,0,0,,
2015,0.627,-7.059,1.412,0,0,,
2016,0.314,-7.843,0.627,0,0,,
2017,0.157,-8.157,0.627,0,0,,
2018,-0.47100000000000003,-9.255,-0.157,0,0,,
2019,-1.412,-10.039,-0.941,0,0,,
2020,-1.569,-10.353,-0.941,0,0,,
2021,-1.725,-11.450999999999999,-1.882,0,0,,
2022,-2.353,-11.922,-2.1959999999999997,0,0,,
2023,-3.137,-12.706,-2.353,0,0,,
2024,-3.608,-13.02,-2.51,0,0,,
2025,-4.3919999999999995,-14.431,-2.51,0,0,,
2026,-4.863,-14.902000000000001,-3.137,0,0,,
2027,-7.059,-16.471,-3.9219999999999997,0,0,,
2028,-11.294,-16.627,-7.372999999999999,0,0,,
2029,-13.175999999999998,-16.314,-8.783999999999999,0,0,,
2030,-14.431,-16.941,-10.98,0,0,,
2031,-14.588,-17.569000000000003,-11.922,0,0,,
2032,-14.431,-17.569000000000003,-13.333,0,0,,
2033,-14.431,-17.569000000000003,-13.960999999999999,0,0,,
2034,-15.059000000000001,-16.941,-15.216,0,0,,
2035,-16.157,-15.216,-15.216,0,0,,
2036,-16.0,-14.118,-15.059000000000001,0,0,,
2037,-16.0,-11.607999999999999,-15.529000000000002,0,0,,
2038,-16.627,-9.882,-16.314,0,0,,
2039,-18.98,-5.961,-17.412,0,0,,
2040,-20.235,-4.3919999999999995,-17.255,0,0,,
2041,-22.275,-2.353,-15.059000000000001,0,0,,
2042,-22.118000000000002,-2.353,-13.647,0,0,,
2043,-18.667,-6.745,-13.02,0,0,,
2044,-17.098,-5.332999999999999,-12.078,0,0,,
2045,-15.686,-5.176,-12.235,0,0,,
2046,12.863,-16.784000000000002,1.0979999999999999,0,0,,
2047,30.275,-19.765,3.9219999999999997,1,0,30.0,
2048,34.667,-20.235,0.314,0,0,,
2049,6.587999999999999,-16.784000000000002,-2.824,0,0,,
2050,-15.843,-8.783999999999999,-6.275,0,0,,
2051,-5.49,-13.960999999999999,-2.353,0,0,,
2052,-3.9219999999999997,-16.157,-1.725,0,0,,
2053,-4.706,-10.039,0.157,0,0,,
2054,-2.039,-8.0,1.0979999999999999,0,0,,
2055,2.824,-6.117999999999999,-2.667,0,0,,
2056,0.941,-6.117999999999999,-5.49,0,0,,
2057,-5.02,-9.097999999999999,-5.332999999999999,0,0,,
2058,-4.706,-11.137,-5.176,0,0,,
2059,-1.569,-11.607999999999999,-3.765,0,0,,
2060,-1.569,-9.882,-3.2939999999999996,0,0,,
2061,-1.725,-9.725,-3.9219999999999997,0,0,,
2062,-0.157,-10.039,-2.667,0,0,,
2063,-0.314,-9.725,-2.51,0,0,,
2064,-1.882,-8.471,-4.078,0,0,,
2065,-2.51,-8.627,-4.706,0,0,,
2066,-0.47100000000000003,-9.725,-3.2939999999999996,0,0,,
2067,0.314,-9.882,-2.667,0,0,,
2068,0.314,-9.725,-1.725,0,0,,
2069,0.627,-10.196,-2.039,0,0,,
2070,1.725,-10.667,-1.882,0,0,,
2071,1.725,-9.725,-2.667,0,0,,
2072,0.784,-9.255,-2.824,0,0,,
2073,-0.314,-9.568999999999999,-2.824,0,0,,
2074,0.157,-9.725,-2.824,0,0,,
2075,0.47100000000000003,-9.097999999999999,-3.765,0,0,,
2076,-0.157,-8.471,-3.451,0,0,,
2077,0.0,-8.471,-3.2939999999999996,0,0,,
2078,1.412,-9.412,-2.824,0,0,,
2079,1.255,-9.097999999999999,-2.98,0,0,,
2080,0.314,-8.941,-3.451,0,0,,
2081,-0.157,-9.412,-2.98,0,0,,
2082,0.47100000000000003,-9.882,-3.137,0,0,,
2083,0.314,-9.568999999999999,-3.2939999999999996,0,0,,
2084,-0.47100000000000003,-9.255,-3.765,0,0,,
2085,-0.47100000000000003,-9.255,-2.98,0,0,,
2086,-0.157,-9.097999999999999,-3.451,0,0,,
2087,-0.314,-8.627,-4.235,0,0,,
2088,-0.784,-8.783999999999999,-4.5489999999999995,0,0,,
2089,-0.941,-9.725,-3.608,0,0,,
2090,-0.314,-9.882,-3.451,0,0,,
2091,-0.314,-9.255,-4.235,0,0,,
2092,-1.255,-9.882,-3.451,0,0,,
2093,-1.725,-10.039,-2.824,0,0,,
2094,-0.47100000000000003,-9.882,-3.2939999999999996,0,0,,
2095,-0.941,-9.725,-3.765,0,0,,
2096,-2.039,-9.412,-3.765,0,0,,
2097,-1.725,-9.882,-2.98,0,0,,
2098,-0.157,-10.039,-3.137,0,0,,
2099,-0.784,-9.725,-3.9219999999999997,0,0,,
2100,-1.882,-9.725,-3.451,0,0,,
2101,-1.0979999999999999,-9.882,-2.353,0,0,,
2102,-0.627,-9.725,-2.667,0,0,,
2103,-1.412,-9.412,-2.98,0,0,,
2104,-1.569,-9.412,-2.824,0,0,,
2105,-1.0979999999999999,-10.196,-2.039,0,0,,
2106,-0.627,-10.196,-2.667,0,0,,
2107,-0.941,-10.039,-3.9219999999999997,0,0,,
2108,-2.039,-10.039,-3.451,0,0,,
2109,-1.569,-10.196,-2.98,0,0,,
2110,-1.569,-9.725,-4.078,0,0,,
2111,-2.039,-10.353,-3.608,0,0,,
2112,-2.667,-10.667,-3.9219999999999997,0,0,,
2113,-2.1959999999999997,-11.294,-3.2939999999999996,0,0,,
2114,-1.725,-11.765,-4.078,0,0,,
2115,-1.569,-11.765,-4.5489999999999995,0,0,,
2116,-2.824,-12.392000000000001,-3.608,0,0,,
2117,-2.1959999999999997,-13.804,-2.667,0,0,,
2118,-2.1959999999999997,-13.960999999999999,-2.824,0,0,,
2119,-1.725,-15.686,-1.882,0,0,,
2120,-0.941,-15.843,-1.882,0,0,,
2121,-0.314,-16.627,-0.941,0,0,,
2122,0.157,-17.255,-0.47100000000000003,0,0,,
2123,0.157,-18.195999999999998,-0.627,0,0,,
2124,-0.157,-18.352999999999998,-0.941,0,0,,
2125,0.157,-17.725,-1.569,0,0,,
2126,-2.353,-17.882,-0.784,0,0,,
2127,-3.137,-18.51,-1.255,0,0,,
2128,2.98,-17.255,-8.314,0,1,,-30.0
2129,5.803999999999999,-16.784000000000002,-9.255,0,0,,
2130,6.117999999999999,-17.725,-5.647,0,0,,
2131,2.824,-16.784000000000002,-3.9219999999999997,0,0,,
2132,0.157,-14.902000000000001,-5.49,0,0,,
2133,-2.039,-14.431,-7.843,0,0,,
2134,-3.9219999999999997,-13.175999999999998,-7.843,0,0,,
2135,-3.608,-10.196,-8.0,0,0,,
2136,-1.725,-8.157,-8.314,0,0,,
2137,1.882,-6.117999999999999,-5.332999999999999,0,0,,
2138,1.0979999999999999,-6.902,-5.02,0,0,,
2139,3.9219999999999997,-8.314,-1.725,0,0,,
2140,5.49,-7.372999999999999,-1.255,0,0,,
2141,5.961,-4.706,0.314,0,0,,
2142,4.235,-3.608,0.784,0,0,,
2143,3.137,-3.451,0.627,0,0,,
2144,1.725,-2.353,0.627,0,0,,
2145,1.255,-2.039,0.627,0,0,,
2146,1.0979999999999999,-2.353,0.47100000000000003,0,0,,
2147,0.941,-2.51,0.47100000000000003,0,0,,
2148,1.0979999999999999,-3.137,0.314,0,0,,
2149,0.784,-3.2939999999999996,0.314,0,0,,
2150,0.784,-3.2939999999999996,0.314,0,0,,
2151,0.941,-3.608,0.157,0,0,,
2152,1.0979999999999999,-4.078,0.157,0,0,,
2153,1.569,-4.3919999999999995,-0.314,0,0,,
2154,1.569,-4.863,-0.47100000000000003,0,0,,
2155,1.255,-5.49,-1.0979999999999999,0,0,,
2156,1.0979999999999999,-5.961,-1.569,0,0,,
2157,0.941,-6.902,-2.1959999999999997,0,0,,
2158,0.784,-7.843,-2.98,0,0,,
2159,0.941,-8.627,-3.451,0,0,,
2160,0.941,-9.568999999999999,-4.235,0,0,,
2161,0.47100000000000003,-10.196,-4.5489999999999995,0,0,,
2162,-0.314,-12.078,-4.706,0,0,,
2163,-1.412,-13.02,-4.863,0,0,,
2164,-2.353,-15.686,-5.49,0,0,,
2165,-4.235,-17.569000000000003,-6.431,0,0,,
2166,-6.275,-18.98,-7.529,0,0,,
2167,-10.039,-18.824,-10.98,0,0,,
2168,-10.51,-18.98,-12.235,0,0,,
2169,-11.765,-19.451,-13.175999999999998,0,0,,
2170,-12.392000000000001,-19.765,-13.804,0,0,,
2171,-12.549000000000001,-18.98,-14.275,0,0,,
2172,-12.549000000000001,-18.667,-13.960999999999999,0,0,,
2173,-13.804,-18.039,-13.02,0,0,,
2174,-16.627,-16.627,-12.078,0,0,,
2175,-17.412,-15.529000000000002,-12.549000000000001,0,0,,
2176,-18.98,-11.607999999999999,-14.745,0,0,,
2177,-19.765,-9.725,-16.314,0,0,,
2178,-21.804000000000002,-5.176,-17.569000000000003,0,0,,
2179,-22.745,-3.2939999999999996,-16.471,0,0,,
2180,-24.156999999999996,-2.667,-12.706,0,0,,
2181,-23.843000000000004,-4.5489999999999995,-10.196,0,0,,
2182,-20.235,-5.332999999999999,-9.568999999999999,0,0,,
2183,-16.157,-8.941,-10.51,0,0,,
2184,-14.588,-8.0,-7.372999999999999,0,0,,
2185,13.333,-16.0,2.1959999999999997,0,0,,
2186,29.333000000000002,-18.51,4.078,0,0,,
2187,41.098,-19.765,3.608,1,0,30.0,
2188,16.314,-16.471,-0.941,0,0,,
2189,-17.098,-8.941,-3.451,0,0,,
2190,-4.078,-14.118,-2.51,0,0,,
2191,-6.431,-17.098,-3.137,0,0,,
2192,-7.686,-10.98,0.627,0,0,,
2193,-4.706,-8.157,1.725,0,0,,
2194,1.412,-6.745,-2.51,0,0,,
2195,2.51,-6.117999999999999,-8.157,0,0,,
2196,-1.725,-7.686,-10.196,0,0,,
2197,-2.824,-10.039,-6.745,0,0,,
2198,-1.725,-11.607999999999999,-6.431,0,0,,
2199,-0.47100000000000003,-10.51,-2.98,0,0,,
2200,0.0,-9.725,-3.9219999999999997,0,0,,
2201,-1.412,-9.097999999999999,-3.451,0,0,,
2202,-3.137,-8.783999999999999,-3.765,0,0,,
2203,-4.3919999999999995,-9.882,-2.98,0,0,,
2204,-2.039,-10.196,-3.137,0,0,,
2205,-1.0979999999999999,-8.941,-2.51,0,0,,
2206,0.157,-8.941,-1.412,0,0,,
2207,1.0979999999999999,-10.039,-0.941,0,0,,
2208,2.51,-10.51,-1.725,0,0,,
2209,2.353,-10.51,-2.353,0,0,,
2210,1.569,-9.568999999999999,-2.824,0,0,,
2211,1.725,-9.725,-2.824,0,0,,
2212,0.627,-8.941,-3.451,0,0,,
2213,0.0,-9.097999999999999,-3.2939999999999996,0,0,,
2214,-0.941,-8.783999999999999,-3.9219999999999997,0,0,,
2215,0.314,-9.255,-3.137,0,0,,
2216,0.0,-8.783999999999999,-3.765,0,0,,
2217,-0.314,-8.783999999999999,-3.451,0,0,,
2218,-0.784,-8.783999999999999,-3.451,0,0,,
2219,0.627,-9.568999999999999,-2.039,0,0,,
2220,0.627,-9.097999999999999,-2.824,0,0,,
2221,-0.314,-9.568999999999999,-3.2939999999999996,0,0,,
2222,-0.941,-9.882,-2.98,0,0,,
2223,-0.314,-10.039,-2.824,0,0,,
2224,-1.0979999999999999,-8.783999999999999,-3.2939999999999996,0,0,,
2225,-1.255,-8.627,-3.9219999999999997,0,0,,
2226,-1.255,-8.941,-3.137,0,0,,
2227,-0.47100000000000003,-8.941,-2.98,0,0,,
2228,-0.314,-8.941,-3.608,0,0,,
2229,-0.314,-9.097999999999999,-4.078,0,0,,
2230,-0.627,-9.568999999999999,-3.137,0,0,,
2231,0.47100000000000003,-9.725,-3.137,0,0,,
2232,-0.314,-9.412,-3.451,0,0,,
2233,-1.412,-8.941,-4.3919999999999995,0,0,,
2234,-1.412,-9.255,-3.608,0,0,,
2235,0.0,-9.568999999999999,-4.078,0,0,,
2236,-0.314,-9.097999999999999,-4.5489999999999995,0,0,,
2237,-0.314,-9.255,-5.49,0,0,,
2238,-1.569,-11.294,-1.725,0,0,,
2239,-0.47100000000000003,-10.98,-2.51,0,0,,
2240,-0.47100000000000003,-10.039,-2.824,0,0,,
2241,-1.412,-9.882,-2.824,0,0,,
2242,-1.0979999999999999,-10.98,-1.725,0,0,,
2243,-0.47100000000000003,-11.137,-2.039,0,0,,
2244,-1.255,-10.824000000000002,-3.451,0,0,,
2245,-1.882,-10.98,-3.608,0,0,,
2246,-1.412,-11.137,-2.824,0,0,,
2247,-0.784,-10.667,-3.2939999999999996,0,0,,
2248,-1.569,-10.353,-3.608,0,0,,
2249,-2.1959999999999997,-11.137,-3.451,0,0,,
2250,-1.882,-11.607999999999999,-3.765,0,0,,
2251,-1.0979999999999999,-12.078,-5.02,0,0,,
2252,-1.882,-11.607999999999999,-5.961,0,0,,
2253,-2.98,-12.078,-5.49,0,0,,
2254,-2.824,-12.706,-4.078,0,0,,
2255,-2.039,-13.333,-3.608,0,0,,
2256,-2.039,-14.118,-2.667,0,0,,
2257,-2.039,-14.588,-2.353,0,0,,
2258,-0.941,-15.216,-1.725,0,0,,
2259,0.0,-15.373,-1.569,0,0,,
2260,0.314,-15.843,-2.667,0,0,,
2261,0.314,-16.0,-2.824,0,0,,
2262,0.314,-16.941,-2.353,0,0,,
2263,0.47100000000000003,-16.157,-4.078,0,0,,
2264,0.314,-15.843,-5.02,0,0,,
2265,0.314,-15.686,-5.647,0,0,,
2266,0.941,-16.0,-5.332999999999999,0,0,,
2267,2.667,-16.314,-5.803999999999999,0,1,,-30.0
2268,2.824,-16.314,-5.803999999999999,0,0,,
2269,2.98,-15.686,-5.49,0,0,,
2270,2.1959999999999997,-15.059000000000001,-4.706,0,0,,
2271,-0.314,-13.960999999999999,-4.235,0,0,,
2272,-2.039,-12.706,-6.745,0,0,,
2273,-2.98,-11.450999999999999,-7.529,0,0,,
2274,-2.667,-9.255,-8.0,0,0,,
2275,-1.725,-7.686,-7.216,0,0,,
2276,-0.314,-5.02,-6.275,0,0,,
2277,-1.412,-5.49,-5.49,0,0,,
2278,1.725,-7.216,-2.1959999999999997,0,0,,
2279,5.961,-5.961,-0.784,0,0,,
2280,5.961,-4.706,0.627,0,0,,
2281,3.9219999999999997,-3.608,1.569,0,0,,
2282,2.98,-3.608,1.255,0,0,,
2283,1.569,-3.137,1.569,0,0,,
2284,1.0979999999999999,-2.667,1.725,0,0,,
2285,0.784,-2.51,1.725,0,0,,
2286,0.157,-2.98,1.569,0,0,,
2287,-0.157,-3.451,2.039,0,0,,
2288,-0.157,-4.235,2.039,0,0,,
2289,0.157,-4.3919999999999995,2.039,0,0,,
2290,0.157,-4.863,2.353,0,0,,
2291,0.314,-5.02,2.1959999999999997,0,0,,
2292,0.47100000000000003,-5.49,2.039,0,0,,
2293,0.47100000000000003,-5.961,1.725,0,0,,
2294,0.314,-6.902,1.255,0,0,,
2295,-0.47100000000000003,-7.843,0.784,0,0,,
2296,-0.47100000000000003,-8.157,0.314,0,0,,
2297,-1.0979999999999999,-9.097999999999999,0.0,0,0,,
2298,-1.255,-9.725,-0.314,0,0,,
2299,-1.412,-10.51,-0.784,0,0,,
2300,-1.569,-11.137,-0.941,0,0,,
2301,-2.353,-12.235,-1.412,0,0,,
2302,-3.2939999999999996,-13.02,-1.255,0,0,,
2303,-4.3919999999999995,-14.588,-1.725,0,0,,
2304,-4.863,-16.627,-2.667,0,0,,
2305,-5.803999999999999,-17.412,-3.451,0,0,,
2306,-9.725,-18.039,-7.059,0,0,,
2307,-10.98,-18.195999999999998,-8.157,0,0,,
2308,-12.078,-19.451,-9.725,0,0,,
2309,-11.765,-19.765,-10.51,0,0,,
2310,-11.607999999999999,-19.922,-12.235,0,0,,
2311,-11.922,-19.922,-13.647,0,0,,
2312,-13.333,-19.137,-14.275,0,0,,
2313,-18.195999999999998,-17.098,-15.686,0,0,,
2314,-19.922,-15.059000000000001,-14.431,0,0,,
2315,-20.863000000000003,-11.607999999999999,-16.157,0,0,,
2316,-20.706,-10.196,-17.255,0,0,,
2317,-20.392,-6.902,-18.51,0,0,,
2318,-21.49,-4.863,-18.195999999999998,0,0,,
2319,-24.156999999999996,-2.98,-16.157,0,0,,
2320,-24.471,-3.608,-14.431,0,0,,
2321,-20.863000000000003,-5.176,-14.275,0,0,,
2322,-9.255,-10.196,-7.216,0,0,,
2323,13.804,-19.608,5.49,1,0,30.0,
2324,37.804,-26.824,5.176,0,0,,
2325,12.863,-19.922,-10.196,0,0,,
2326,-16.0,-8.157,-5.647,0,0,,
2327,-6.275,-9.255,-0.941,0,0,,
2328,-4.3919999999999995,-14.431,2.667,0,0,,
2329,-2.039,-8.471,0.0,0,0,,
2330,-0.157,-7.372999999999999,2.1959999999999997,0,0,,
2331,-2.667,-9.412,2.824,0,0,,
2332,-1.569,-9.568999999999999,-0.784,0,0,,
2333,2.98,-7.216,-7.529,0,0,,
2334,4.078,-6.587999999999999,-8.941,0,0,,
2335,2.667,-9.255,-7.216,0,0,,
2336,-0.627,-12.078,-4.078,0,0,,
2337,-0.784,-11.137,-3.451,0,0,,
2338,-2.1959999999999997,-8.314,-4.5489999999999995,0,0,,
2339,-3.451,-7.686,-4.5489999999999995,0,0,,
2340,-3.451,-8.941,-3.765,0,0,,
2341,-2.353,-9.412,-2.667,0,0,,
2342,0.314,-8.941,-2.1959999999999997,0,0,,
2343,2.353,-9.412,-1.725,0,0,,
2344,2.824,-10.196,-0.314,0,0,,
2345,2.667,-10.98,-1.412,0,0,,
2346,0.784,-11.137,-0.941,0,0,,
2347,-0.784,-9.882,-3.765,0,0,,
2348,-0.941,-9.568999999999999,-2.98,0,0,,
2349,0.157,-9.412,-3.451,0,0,,
2350,-0.314,-9.255,-3.765,0,0,,
2351,-0.784,-8.941,-4.078,0,0,,
2352,-1.0979999999999999,-8.471,-3.608,0,0,,
2353,-1.569,-8.783999999999999,-3.608,0,0,,
2354,-1.569,-9.568999999999999,-3.137,0,0,,
2355,-2.51,-8.941,-3.608,0,0,,
2356,0.0,-10.196,-2.1959999999999997,0,0,,
2357,0.314,-9.882,-3.137,0,0,,
2358,0.314,-9.882,-3.765,0,0,,
2359,-0.47100000000000003,-9.725,-3.9219999999999997,0,0,,
2360,-0.314,-9.882,-3.137,0,0,,
2361,-0.157,-9.568999999999999,-3.765,0,0,,
2362,-0.157,-9.097999999999999,-4.5489999999999995,0,0,,
2363,-0.784,-9.568999999999999,-3.608,0,0,,
2364,-0.314,-9.725,-3.137,0,0,,
2365,0.0,-9.412,-4.078,0,0,,
2366,0.0,-9.412,-4.078,0,0,,
2367,-0.157,-9.412,-3.9219999999999997,0,0,,
2368,-0.157,-10.51,-2.51,0,0,,
2369,-0.784,-9.725,-3.451,0,0,,
2370,-1.725,-9.255,-4.078,0,0,,
2371,-2.1959999999999997,-9.255,-3.608,0,0,,
2372,-0.314,-9.725,-2.667,0,0,,
2373,-0.157,-9.255,-3.765,0,0,,
2374,-0.941,-9.255,-3.608,0,0,,
2375,-1.412,-9.412,-3.451,0,0,,
2376,-0.314,-9.568999999999999,-2.667,0,0,,
2377,-1.0979999999999999,-9.097999999999999,-3.137,0,0,,
2378,-1.569,-8.471,-3.137,0,0,,
2379,-1.255,-8.941,-2.039,0,0,,
2380,-0.627,-9.097999999999999,-2.1959999999999997,0,0,,
2381,-0.314,-8.783999999999999,-3.608,0,0,,
2382,-0.941,-9.097999999999999,-3.451,0,0,,
2383,-0.941,-9.568999999999999,-3.608,0,0,,
2384,-0.314,-10.039,-3.2939999999999996,0,0,,
2385,-0.941,-10.039,-4.706,0,0,,
2386,-2.1959999999999997,-9.882,-5.176,0,0,,
2387,-2.824,-9.725,-4.235,0,0,,
2388,-1.725,-10.039,-3.765,0,0,,
2389,-2.51,-9.882,-3.765,0,0,,
2390,-2.667,-10.196,-3.765,0,0,,
2391,-2.98,-10.667,-3.137,0,0,,
2392,-2.353,-10.824000000000002,-3.765,0,0,,
2393,-2.98,-11.765,-4.078,0,0,,
2394,-3.608,-12.235,-4.078,0,0,,
2395,-2.667,-14.275,-2.98,0,0,,
2396,-1.882,-14.745,-2.824,0,0,,
2397,-1.569,-14.902000000000001,-3.608,0,0,,
2398,-2.1959999999999997,-15.216,-2.98,0,0,,
2399,-0.941,-16.627,-2.039,0,0,,
2400,-0.157,-16.314,-2.353,0,0,,
2401,-0.314,-16.941,-1.255,0,0,,
2402,0.0,-17.569000000000003,-1.412,0,0,,
2403,0.314,-17.882,-1.725,0,0,,
2404,0.157,-16.471,-3.451,0,0,,
2405,-0.47100000000000003,-16.0,-4.5489999999999995,0,0,,
2406,-1.0979999999999999,-17.725,-3.137,0,0,,
2407,0.314,-18.039,-4.3919999999999995,0,1,,-30.0
2408,4.863,-16.941,-7.529,0,0,,
2409,6.745,-16.627,-6.902,0,0,,
2410,5.647,-16.0,-5.961,0,0,,
2411,4.3919999999999995,-14.275,-5.49,0,0,,
2412,3.2939999999999996,-13.804,-6.431,0,0,,
2413,-2.1959999999999997,-12.706,-8.0,0,0,,
2414,-4.078,-10.98,-8.471,0,0,,
2415,-2.1959999999999997,-7.059,-7.843,0,0,,
2416,-1.255,-5.02,-6.745,0,0,,
2417,-2.1959999999999997,-5.49,-5.332999999999999,0,0,,
2418,1.0979999999999999,-7.843,-2.824,0,0,,
2419,3.765,-7.529,-1.882,0,0,,
2420,6.275,-4.706,0.0,0,0,,
2421,6.587999999999999,-3.765,0.314,0,0,,
2422,5.803999999999999,-3.2939999999999996,-0.314,0,0,,
2423,5.02,-3.2939999999999996,-0.157,0,0,,
2424,4.235,-2.667,-0.314,0,0,,
2425,3.137,-2.51,-0.47100000000000003,0,0,,
2426,2.353,-2.98,-0.784,0,0,,
2427,0.784,-3.451,-0.627,0,0,,
2428,0.627,-3.608,-0.784,0,0,,
2429,0.784,-3.9219999999999997,-0.784,0,0,,
2430,0.941,-4.235,-0.47100000000000003,0,0,,
2431,1.0979999999999999,-4.706,-0.627,0,0,,
2432,1.255,-5.02,-0.941,0,0,,
2433,0.941,-5.332999999999999,-1.412,0,0,,
2434,0.627,-5.647,-1.882,0,0,,
2435,0.47100000000000003,-6.275,-2.51,0,0,,
2436,0.314,-7.372999999999999,-3.451,0,0,,
2437,0.314,-7.843,-3.9219999999999997,0,0,,
2438,0.314,-9.412,-4.706,0,0,,
2439,0.0,-9.882,-5.02,0,0,,
2440,-0.784,-10.824000000000002,-5.49,0,0,,
2441,-1.569,-11.294,-5.647,0,0,,
2442,-2.98,-13.333,-5.803999999999999,0,0,,
2443,-4.3919999999999995,-15.529000000000002,-7.372999999999999,0,0,,
2444,-5.332999999999999,-16.471,-8.157,0,0,,
2445,-8.314,-17.412,-10.353,0,0,,
2446,-10.039,-17.255,-10.824000000000002,0,0,,
2447,-12.863,-17.569000000000003,-12.235,0,0,,
2448,-13.647,-18.195999999999998,-12.863,0,0,,
2449,-13.960999999999999,-17.725,-13.175999999999998,0,0,,
2450,-13.49,-17.098,-12.549000000000001,0,0,,
2451,-13.804,-16.784000000000002,-11.922,0,0,,
2452,-15.686,-16.784000000000002,-10.353,0,0,,
2453,-16.471,-16.471,-9.568999999999999,0,0,,
2454,-16.627,-15.373,-9.412,0,0,,
2455,-16.471,-14.275,-9.725,0,0,,
2456,-16.784000000000002,-10.824000000000002,-11.450999999999999,0,0,,
2457,-17.725,-9.568999999999999,-12.549000000000001,0,0,,
2458,-19.765,-6.431,-12.706,0,0,,
2459,-21.647,-4.3919999999999995,-10.667,0,0,,
2460,-21.804000000000002,-4.235,-9.568999999999999,0,0,,
2461,-19.451,-7.216,-10.039,0,0,,
2462,-18.98,-7.529,-10.039,0,0,,
2463,-14.745,-7.372999999999999,-9.255,0,0,,
2464,-1.0979999999999999,-12.078,-3.765,0,0,,
2465,32.314,-17.725,-0.941,0,0,,
2466,26.353,-19.608,0.157,1,0,30.0,
2467,3.765,-14.745,-4.078,0,0,,
2468,-9.882,-9.725,-5.02,0,0,,
2469,-1.0979999999999999,-11.765,-3.451,0,0,,
2470,-0.784,-16.0,-3.9219999999999997,0,0,,
2471,-0.941,-11.922,-3.9219999999999997,0,0,,
2472,0.0,-8.0,0.314,0,0,,
2473,-0.627,-10.196,1.569,0,0,,
2474,-3.608,-12.392000000000001,2.039,0,0,,
2475,-1.0979999999999999,-9.882,0.47100000000000003,0,0,,
2476,0.47100000000000003,-8.941,-1.882,0,0,,
2477,3.9219999999999997,-8.471,-8.0,0,0,,
2478,3.765,-10.039,-6.902,0,0,,
2479,2.039,-10.667,-4.235,0,0,,
2480,0.941,-9.255,-4.3919999999999995,0,0,,
2481,0.0,-7.059,-4.235,0,0,,
2482,1.569,-8.471,-4.5489999999999995,0,0,,
2483,1.882,-8.783999999999999,-3.451,0,0,,
2484,2.353,-8.471,-2.353,0,0,,
2485,2.51,-8.471,-2.039,0,0,,
2486,4.3919999999999995,-9.568999999999999,-1.569,0,0,,
2487,3.765,-9.568999999999999,-1.882,0,0,,
2488,2.824,-9.725,-2.353,0,0,,
2489,2.353,-9.725,-2.51,0,0,,
2490,3.137,-9.725,-1.882,0,0,,
2491,1.0979999999999999,-8.471,-2.667,0,0,,
2492,0.784,-8.314,-3.137,0,0,,
2493,1.882,-8.627,-3.137,0,0,,
2494,3.2939999999999996,-9.097999999999999,-3.137,0,0,,
2495,3.2939999999999996,-8.783999999999999,-3.608,0,0,,
2496,2.1959999999999997,-8.783999999999999,-3.608,0,0,,
2497,1.0979999999999999,-9.255,-2.51,0,0,,
2498,1.725,-9.412,-2.667,0,0,,
2499,1.569,-8.783999999999999,-2.667,0,0,,
2500,1.255,-8.471,-2.98,0,0,,
2501,1.725,-8.627,-2.51,0,0,,
2502,2.353,-8.627,-2.98,0,0,,
2503,1.0979999999999999,-8.471,-3.137,0,0,,
2504,-0.784,-8.941,-3.765,0,0,,
2505,-0.941,-9.725,-3.2939999999999996,0,0,,
2506,0.627,-9.725,-3.451,0,0,,
2507,-0.627,-9.097999999999999,-3.608,0,0,,
2508,-0.784,-9.255,-3.451,0,0,,
2509,0.314,-9.725,-2.51,0,0,,
2510,1.0979999999999999,-9.725,-3.137,0,0,,
2511,-0.157,-9.097999999999999,-4.235,0,0,,
2512,-1.0979999999999999,-9.725,-4.3919999999999995,0,0,,
2513,-0.784,-10.353,-2.824,0,0,,
2514,-0.314,-9.725,-3.765,0,0,,
2515,-1.0979999999999999,-9.412,-5.02,0,0,,
2516,-2.51,-11.294,-3.137,0,0,,
2517,-2.353,-11.294,-2.039,0,0,,
2518,-1.882,-10.353,-3.451,0,0,,
2519,-2.039,-9.882,-3.451,0,0,,
2520,-2.51,-9.882,-2.353,0,0,,
2521,-1.255,-10.353,-1.412,0,0,,
2522,-0.784,-9.725,-2.824,0,0,,
2523,-1.412,-9.725,-2.51,0,0,,
2524,-1.412,-9.568999999999999,-2.824,0,0,,
2525,0.157,-10.196,-3.451,0,0,,
2526,-0.314,-9.882,-5.02,0,0,,
2527,-1.0979999999999999,-10.51,-5.647,0,0,,
2528,-1.569,-10.667,-5.332999999999999,0,0,,
2529,-0.627,-11.137,-4.235,0,0,,
2530,-1.0979999999999999,-10.824000000000002,-4.5489999999999995,0,0,,
2531,-2.51,-10.667,-3.765,0,0,,
2532,-2.1959999999999997,-11.137,-1.882,0,0,,
2533,-1.882,-11.765,-1.725,0,0,,
2534,-2.51,-11.765,-2.039,0,0,,
2535,-2.51,-12.078,-2.1959999999999997,0,0,,
2536,-2.667,-12.392000000000001,-2.51,0,0,,
2537,-2.039,-12.549000000000001,-2.667,0,0,,
2538,-2.353,-12.549000000000001,-2.1959999999999997,0,0,,
2539,-1.882,-13.175999999999998,-1.412,0,0,,
2540,-1.412,-13.49,-1.569,0,0,,
2541,1.255,-15.059000000000001,-0.47100000000000003,0,0,,
2542,1.0979999999999999,-14.431,-1.725,0,0,,
2543,0.784,-16.0,-0.627,0,0,,
2544,2.667,-16.627,-0.627,0,0,,
2545,2.98,-16.941,-3.608,0,0,,
2546,2.824,-17.098,-4.706,0,0,,
2547,0.941,-17.569000000000003,-6.275,0,0,,
2548,1.0979999999999999,-18.039,-5.176,0,0,,
2549,1.412,-18.352999999999998,-5.02,0,1,,-30.0
2550,4.706,-17.412,-6.587999999999999,0,0,,
2551,5.803999999999999,-17.255,-7.059,0,0,,
2552,4.3919999999999995,-16.941,-4.863,0,0,,
2553,3.2939999999999996,-16.471,-4.235,0,0,,
2554,0.941,-14.902000000000001,-6.275,0,0,,
2555,-0.941,-13.49,-8.941,0,0,,
2556,-2.667,-12.235,-9.412,0,0,,
2557,-0.314,-7.843,-8.627,0,0,,
2558,0.314,-5.803999999999999,-7.372999999999999,0,0,,
2559,-1.725,-7.059,-5.02,0,0,,
2560,-0.157,-8.157,-2.98,0,0,,
2561,4.863,-7.529,-1.0979999999999999,0,0,,
2562,5.647,-5.647,-0.157,0,0,,
2563,4.706,-3.451,0.157,0,0,,
2564,3.137,-2.824,0.0,0,0,,
2565,2.98,-2.1959999999999997,0.0,0,0,,
2566,2.667,-1.412,0.0,0,0,,
2567,2.824,-1.569,0.0,0,0,,
2568,2.667,-3.137,0.314,0,0,,
2569,2.1959999999999997,-3.608,0.314,0,0,,
2570,1.255,-4.706,0.314,0,0,,
2571,1.0979999999999999,-4.863,0.47100000000000003,0,0,,
2572,0.941,-5.332999999999999,0.47100000000000003,0,0,,
2573,1.412,-5.803999999999999,0.314,0,0,,
2574,1.725,-5.961,0.0,0,0,,
2575,1.569,-6.745,-0.314,0,0,,
2576,1.255,-7.059,-0.941,0,0,,
2577,0.47100000000000003,-8.0,-2.039,0,0,,
2578,0.314,-8.471,-2.51,0,0,,
2579,0.157,-9.725,-3.451,0,0,,
2580,-0.47100000000000003,-10.353,-3.9219999999999997,0,0,,
2581,-0.941,-10.98,-4.3919999999999995,0,0,,
2582,-2.1959999999999997,-11.765,-4.863,0,0,,
2583,-3.137,-12.392000000000001,-4.863,0,0,,
2584,-4.235,-14.745,-5.176,0,0,,
2585,-5.176,-15.843,-5.961,0,0,,
2586,-8.314,-16.471,-8.941,0,0,,
2587,-10.039,-16.314,-10.51,0,0,,
2588,-11.922,-16.157,-12.549000000000001,0,0,,
2589,-13.804,-17.098,-14.118,0,0,,
2590,-14.275,-17.255,-14.431,0,0,,
2591,-14.902000000000001,-17.255,-15.686,0,0,,
2592,-15.216,-16.941,-16.0,0,0,,
2593,-15.843,-16.627,-15.529000000000002,0,0,,
2594,-17.412,-16.157,-14.431,0,0,,
2595,-19.137,-15.373,-13.49,0,0,,
2596,-19.608,-11.450999999999999,-14.902000000000001,0,0,,
2597,-19.608,-9.412,-16.314,0,0,,
2598,-21.49,-4.235,-17.255,0,0,,
2599,-22.901999999999997,-2.353,-16.627,0,0,,
2600,-24.941,-1.882,-13.804,0,0,,
2601,-24.314,-2.824,-12.549000000000001,0,0,,
2602,-20.392,-7.843,-11.922,0,0,,
2603,-19.765,-6.117999999999999,-8.0,0,0,,
2604,-5.332999999999999,-11.294,-1.255,0,0,,
2605,36.391999999999996,-20.235,4.235,1,0,30.0,
2606,59.137,-23.843000000000004,5.961,0,0,,
2607,6.902,-18.51,-4.078,0,0,,
2608,-23.686,-13.02,-4.3919999999999995,0,0,,
2609,-3.2939999999999996,-12.078,-1.0979999999999999,0,0,,
2610,-1.255,-16.0,-2.1959999999999997,0,0,,
2611,-9.097999999999999,-11.607999999999999,-0.47100000000000003,0,0,,
2612,-0.627,-5.332999999999999,-0.47100000000000003,0,0,,
2613,4.078,-5.961,-1.412,0,0,,
2614,0.47100000000000003,-6.587999999999999,-8.0,0,0,,
2615,-3.2939999999999996,-8.157,-8.783999999999999,0,0,,
2616,-3.2939999999999996,-12.392000000000001,-3.608,0,0,,
2617,-1.882,-12.706,-2.824,0,0,,
2618,-0.627,-9.725,-4.706,0,0,,
2619,0.627,-8.941,-5.803999999999999,0,0,,
2620,0.0,-9.255,-5.176,0,0,,
2621,-2.51,-8.941,-4.706,0,0,,
2622,-3.451,-8.471,-3.608,0,0,,
2623,-0.314,-9.725,-1.725,0,0,,
2624,0.157,-9.882,-1.882,0,0,,
2625,0.47100000000000003,-9.882,-2.667,0,0,,
2626,0.157,-10.353,-1.882,0,0,,
2627,1.255,-10.353,-2.1959999999999997,0,0,,
2628,0.47100000000000003,-10.353,-2.353,0,0,,
2629,0.157,-10.039,-3.137,0,0,,
2630,-0.157,-9.725,-2.98,0,0,,
2631,0.784,-9.568999999999999,-2.667,0,0,,
2632,1.0979999999999999,-8.0,-3.137,0,0,,
2633,0.941,-8.314,-3.9219999999999997,0,0,,
2634,0.627,-9.255,-3.451,0,0,,
2635,2.51,-9.097999999999999,-3.765,0,0,,
2636,1.569,-8.941,-3.2939999999999996,0,0,,
2637,-0.157,-8.783999999999999,-4.235,0,0,,
2638,0.0,-9.412,-3.451,0,0,,
2639,0.627,-9.097999999999999,-3.608,0,0,,
2640,-0.157,-8.471,-3.765,0,0,,
2641,-0.784,-8.941,-4.5489999999999995,0,0,,
2642,-0.941,-9.255,-4.235,0,0,,
2643,0.47100000000000003,-9.097999999999999,-4.235,0,0,,
2644,-0.314,-8.471,-5.02,0,0,,
2645,-0.941,-8.941,-5.332999999999999,0,0,,
2646,-1.0979999999999999,-10.196,-2.1959999999999997,0,0,,
2647,-0.941,-9.882,-3.608,0,0,,
2648,-1.569,-9.725,-2.98,0,0,,
2649,-1.569,-9.568999999999999,-3.2939999999999996,0,0,,
2650,-1.569,-9.725,-1.882,0,0,,
2651,-0.47100000000000003,-9.412,-2.98,0,0,,
2652,-1.412,-9.412,-2.667,0,0,,
2653,-2.1959999999999997,-9.255,-2.98,0,0,,
2654,-1.412,-9.097999999999999,-2.98,0,0,,
2655,-0.47100000000000003,-8.471,-3.765,0,0,,
2656,-0.941,-8.471,-4.235,0,0,,
2657,-0.941,-8.627,-3.765,0,0,,
2658,-1.255,-8.314,-3.608,0,0,,
2659,0.0,-8.783999999999999,-4.078,0,0,,
2660,-0.627,-9.097999999999999,-4.5489999999999995,0,0,,
2661,-1.412,-9.255,-4.3919999999999995,0,0,,
2662,-0.314,-10.196,-3.9219999999999997,0,0,,
2663,-0.314,-10.039,-4.235,0,0,,
2664,-1.0979999999999999,-10.353,-4.3919999999999995,0,0,,
2665,-1.255,-10.667,-4.078,0,0,,
2666,-0.941,-10.98,-2.98,0,0,,
2667,-1.569,-10.51,-3.2939999999999996,0,0,,
2668,-1.882,-10.353,-3.2939999999999996,0,0,,
2669,-2.51,-10.824000000000002,-2.824,0,0,,
2670,-2.1959999999999997,-10.98,-2.353,0,0,,
2671,-2.51,-10.667,-3.451,0,0,,
2672,-2.98,-10.824000000000002,-3.608,0,0,,
2673,-2.824,-11.137,-3.2939999999999996,0,0,,
2674,-2.353,-11.607999999999999,-3.2939999999999996,0,0,,
2675,-1.569,-11.765,-3.608,0,0,,
2676,-1.725,-13.02,-3.2939999999999996,0,0,,
2677,-0.941,-14.118,-2.824,0,0,,
2678,-0.314,-15.059000000000001,-2.98,0,0,,
2679,-0.157,-16.0,-2.353,0,0,,
2680,0.0,-17.098,-2.1959999999999997,0,0,,
2681,0.157,-18.039,-1.412,0,0,,
2682,1.725,-18.352999999999998,-0.627,0,0,,
2683,2.039,-18.039,-1.255,0,0,,
2684,1.412,-16.784000000000002,-2.51,0,0,,
2685,1.255,-16.784000000000002,-4.3919999999999995,0,0,,
2686,1.569,-17.255,-5.02,0,0,,
2687,0.314,-18.039,-4.5489999999999995,0,1,,-30.0
2688,0.47100000000000003,-17.412,-5.49,0,0,,
2689,-0.47100000000000003,-16.941,-3.9219999999999997,0,0,,
2690,-1.412,-16.314,-4.706,0,0,,
2691,-0.157,-14.902000000000001,-7.372999999999999,0,0,,
2692,-1.569,-13.175999999999998,-8.783999999999999,0,0,,
2693,-2.039,-11.765,-8.941,0,0,,
2694,0.0,-9.725,-8.157,0,0,,
2695,1.882,-6.745,-9.097999999999999,0,0,,
2696,0.314,-5.49,-8.627,0,0,,
2697,-0.784,-6.902,-6.117999999999999,0,0,,
2698,2.98,-8.157,-2.51,0,0,,
2699,4.863,-7.216,-1.882,0,0,,
2700,5.332999999999999,-4.3919999999999995,-0.314,0,0,,
2701,4.078,-3.451,0.47100000000000003,0,0,,
2702,2.824,-3.451,0.47100000000000003,0,0,,
2703,1.412,-2.353,0.0,0,0,,
2704,1.255,-2.1959999999999997,0.157,0,0,,
2705,1.725,-2.51,0.47100000000000003,0,0,,
2706,2.1959999999999997,-2.98,0.314,0,0,,
2707,1.882,-2.98,0.47100000000000003,0,0,,
2708,0.47100000000000003,-3.451,0.627,0,0,,
2709,0.314,-3.451,0.47100000000000003,0,0,,
2710,0.314,-3.765,0.157,0,0,,
2711,0.47100000000000003,-3.765,0.0,0,0,,
2712,1.725,-4.5489999999999995,-0.47100000000000003,0,0,,
2713,1.882,-4.3919999999999995,-0.47100000000000003,0,0,,
2714,1.725,-5.176,-1.569,0,0,,
2715,1.412,-5.647,-1.882,0,0,,
2716,0.941,-6.587999999999999,-2.824,0,0,,
2717,1.0979999999999999,-7.372999999999999,-3.765,0,0,,
2718,0.627,-8.0,-4.3919999999999995,0,0,,
2719,0.157,-8.941,-5.02,0,0,,
2720,-0.314,-9.725,-5.49,0,0,,
2721,-1.255,-11.294,-5.332999999999999,0,0,,
2722,-1.725,-12.235,-5.647,0,0,,
2723,-3.137,-14.902000000000001,-7.216,0,0,,
2724,-5.02,-16.627,-9.412,0,0,,
2725,-5.961,-17.098,-10.51,0,0,,
2726,-7.686,-18.039,-13.175999999999998,0,0,,
2727,-7.843,-18.195999999999998,-14.118,0,0,,
2728,-7.372999999999999,-18.51,-15.216,0,0,,
2729,-7.372999999999999,-19.137,-15.686,0,0,,
2730,-8.314,-19.922,-15.686,0,0,,
2731,-10.353,-20.235,-13.647,0,0,,
2732,-16.627,-20.392,-11.450999999999999,0,0,,
2733,-17.098,-18.039,-12.706,0,0,,
2734,-16.0,-15.529000000000002,-15.843,0,0,,
2735,-15.686,-9.412,-19.922,0,0,,
2736,-16.627,-7.216,-20.235,0,0,,
2737,-19.922,-5.49,-17.255,0,0,,
2738,-21.804000000000002,-4.863,-15.529000000000002,0,0,,
2739,-22.745,-4.706,-11.607999999999999,0,0,,
2740,-19.765,-5.332999999999999,-10.51,0,0,,
2741,-17.569000000000003,-6.275,-10.353,0,0,,
2742,-14.275,-8.627,-7.372999999999999,0,0,,
2743,-12.706,-7.216,-4.235,0,0,,
2744,10.98,-14.275,3.9219999999999997,0,0,,
2745,24.314,-18.039,9.097999999999999,0,0,,
2746,36.549,-17.725,5.332999999999999,1,0,30.0,
2747,20.235,-15.216,1.569,0,0,,
2748,-4.863,-12.392000000000001,-0.627,0,0,,
2749,-3.137,-15.843,-2.1959999999999997,0,0,,
2750,-5.961,-18.51,-2.98,0,0,,
2751,-11.450999999999999,-11.765,-1.882,0,0,,
2752,-9.255,-8.471,0.47100000000000003,0,0,,
2753,-3.451,-9.412,1.412,0,0,,
2754,-3.765,-10.196,-0.627,0,0,,
2755,-3.2939999999999996,-10.039,-6.745,0,0,,
2756,3.608,-9.882,-8.941,0,0,,
2757,5.961,-10.51,-6.745,0,0,,
2758,6.275,-10.667,-3.451,0,0,,
2759,4.235,-8.783999999999999,-4.078,0,0,,
2760,1.0979999999999999,-7.216,-4.3919999999999995,0,0,,
2761,0.0,-7.843,-5.02,0,0,,
2762,-0.941,-9.255,-4.078,0,0,,
2763,-1.569,-8.941,-3.2939999999999996,0,0,,
2764,0.157,-9.412,-1.412,0,0,,
2765,2.51,-9.568999999999999,-2.1959999999999997,0,0,,
2766,2.667,-9.882,-2.1959999999999997,0,0,,
2767,2.1959999999999997,-10.196,-2.353,0,0,,
2768,2.98,-10.667,-1.255,0,0,,
2769,3.608,-9.568999999999999,-0.941,0,0,,
2770,2.51,-8.471,-1.569,0,0,,
2771,1.569,-8.0,-2.039,0,0,,
2772,2.1959999999999997,-8.627,-1.882,0,0,,
2773,2.98,-9.568999999999999,-2.667,0,0,,
2774,2.039,-9.412,-3.137,0,0,,
2775,1.255,-9.255,-3.2939999999999996,0,0,,
2776,2.667,-9.568999999999999,-2.039,0,0,,
2777,2.51,-9.097999999999999,-2.353,0,0,,
2778,1.882,-8.157,-3.137,0,0,,
2779,1.0979999999999999,-8.314,-3.2939999999999996,0,0,,
2780,2.98,-9.097999999999999,-2.98,0,0,,
2781,1.882,-8.941,-3.2939999999999996,0,0,,
2782,1.725,-8.783999999999999,-3.608,0,0,,
2783,0.941,-8.941,-2.98,0,0,,
2784,2.039,-9.568999999999999,-2.51,0,0,,
2785,1.255,-9.097999999999999,-3.2939999999999996,0,0,,
2786,0.47100000000000003,-8.941,-3.9219999999999997,0,0,,
2787,-0.314,-9.412,-2.98,0,0,,
2788,0.627,-9.568999999999999,-2.824,0,0,,
2789,0.47100000000000003,-8.941,-3.451,0,0,,
2790,-0.941,-8.783999999999999,-3.608,0,0,,
2791,-0.314,-9.255,-3.2939999999999996,0,0,,
2792,0.941,-9.097999999999999,-4.078,0,0,,
2793,0.0,-8.627,-4.078,0,0,,
2794,-1.412,-8.471,-5.332999999999999,0,0,,
2795,-1.412,-8.941,-4.5489999999999995,0,0,,
2796,-0.157,-9.412,-4.3919999999999995,0,0,,
2797,-1.569,-9.882,-3.765,0,0,,
2798,-2.1959999999999997,-9.725,-4.3919999999999995,0,0,,
2799,-1.725,-10.196,-2.353,0,0,,
2800,-1.255,-9.882,-2.824,0,0,,
2801,-2.1959999999999997,-9.725,-2.98,0,0,,
2802,-2.51,-9.882,-3.137,0,0,,
2803,-1.725,-10.51,-1.882,0,0,,
2804,-0.47100000000000003,-10.51,-2.667,0,0,,
2805,-0.784,-9.882,-3.765,0,0,,
2806,-1.569,-10.196,-4.3919999999999995,0,0,,
2807,-1.255,-10.51,-3.608,0,0,,
2808,-0.784,-10.196,-5.176,0,0,,
2809,-1.255,-9.882,-5.176,0,0,,
2810,-2.667,-10.353,-4.3919999999999995,0,0,,
2811,-2.353,-10.51,-3.2939999999999996,0,0,,
2812,-1.412,-10.667,-3.765,0,0,,
2813,-2.98,-11.607999999999999,-3.765,0,0,,
2814,-2.667,-11.922,-3.451,0,0,,
2815,-1.725,-12.549000000000001,-3.2939999999999996,0,0,,
2816,-1.569,-12.392000000000001,-4.235,0,0,,
2817,-2.353,-13.175999999999998,-3.451,0,0,,
2818,-2.353,-13.49,-3.137,0,0,,
2819,-0.941,-15.216,-0.941,0,0,,
2820,0.0,-15.373,-1.255,0,0,,
2821,-0.941,-15.373,-1.882,0,0,,
2822,-0.157,-17.412,-0.47100000000000003,0,0,,
2823,0.157,-17.882,-0.157,0,0,,
2824,0.627,-18.667,0.47100000000000003,0,0,,
2825,0.941,-19.137,0.0,0,0,,
2826,2.039,-19.294,-1.412,0,0,,
2827,2.039,-18.039,-2.824,0,0,,
2828,1.569,-17.098,-4.235,0,0,,
2829,0.784,-17.098,-4.863,0,1,,-30.0
2830,1.725,-18.039,-5.49,0,0,,
2831,1.569,-18.195999999999998,-5.176,0,0,,
2832,0.784,-17.569000000000003,-6.275,0,0,,
2833,2.98,-15.529000000000002,-8.471,0,0,,
2834,3.451,-14.902000000000001,-9.412,0,0,,
2835,-0.47100000000000003,-12.392000000000001,-9.255,0,0,,
2836,-0.784,-11.450999999999999,-8.783999999999999,0,0,,
2837,1.725,-7.059,-8.627,0,0,,
2838,0.0,-5.02,-9.882,0,0,,
2839,-1.255,-5.647,-8.157,0,0,,
2840,3.451,-7.372999999999999,-4.078,0,0,,
2841,6.431,-6.587999999999999,-2.824,0,0,,
2842,7.529,-3.608,-0.47100000000000003,0,0,,
2843,6.902,-2.98,0.157,0,0,,
2844,4.235,-2.98,0.47100000000000003,0,0,,
2845,3.137,-2.51,0.314,0,0,,
2846,1.725,-1.412,0.47100000000000003,0,0,,
2847,2.039,-1.725,0.47100000000000003,0,0,,
2848,2.039,-2.51,0.314,0,0,,
2849,1.569,-2.98,0.157,0,0,,
2850,1.412,-3.608,-0.157,0,0,,
2851,1.0979999999999999,-3.9219999999999997,0.0,0,0,,
2852,0.784,-4.235,0.0,0,0,,
2853,0.47100000000000003,-4.863,-0.157,0,0,,
2854,1.255,-5.332999999999999,-0.314,0,0,,
2855,1.255,-5.647,-0.784,0,0,,
2856,1.0979999999999999,-6.431,-1.569,0,0,,
2857,1.0979999999999999,-6.745,-2.1959999999999997,0,0,,
2858,0.314,-8.0,-3.451,0,0,,
2859,-0.157,-8.627,-4.078,0,0,,
2860,-0.941,-9.097999999999999,-5.176,0,0,,
2861,-1.412,-9.255,-5.49,0,0,,
2862,-2.1959999999999997,-10.196,-6.431,0,0,,
2863,-4.078,-11.765,-6.902,0,0,,
2864,-4.706,-12.706,-7.216,0,0,,
2865,-6.587999999999999,-14.275,-8.627,0,0,,
2866,-7.529,-14.588,-9.882,0,0,,
2867,-10.196,-14.588,-13.175999999999998,0,0,,
2868,-11.137,-14.745,-14.588,0,0,,
2869,-12.078,-15.373,-16.157,0,0,,
2870,-12.706,-15.686,-15.843,0,0,,
2871,-13.333,-15.686,-15.529000000000002,0,0,,
2872,-15.686,-15.843,-14.431,0,0,,
2873,-16.784000000000002,-15.529000000000002,-13.333,0,0,,
2874,-17.882,-15.686,-10.353,0,0,,
2875,-18.352999999999998,-15.686,-9.412,0,0,,
2876,-17.725,-13.960999999999999,-8.314,0,0,,
2877,-16.784000000000002,-12.863,-8.314,0,0,,
2878,-14.275,-10.039,-11.765,0,0,,
2879,-14.902000000000001,-6.745,-13.804,0,0,,
2880,-15.843,-5.49,-13.960999999999999,0,0,,
2881,-17.882,-3.608,-11.294,0,0,,
2882,-17.725,-3.608,-9.568999999999999,0,0,,
2883,-16.157,-8.783999999999999,-7.372999999999999,0,0,,
2884,-16.627,-8.627,-4.706,0,0,,
2885,-11.294,-8.783999999999999,-0.784,1,0,30.0,
2886,3.2939999999999996,-13.960999999999999,3.137,0,0,,
2887,34.667,-18.667,4.5489999999999995,0,0,,
2888,24.0,-18.51,0.784,0,0,,
2889,0.314,-15.059000000000001,-2.039,0,0,,
2890,-9.568999999999999,-11.607999999999999,-2.51,0,0,,
2891,-2.824,-13.647,-0.941,0,0,,
2892,-7.059,-15.529000000000002,-1.882,0,0,,
2893,-8.627,-10.353,-1.725,0,0,,
2894,1.0979999999999999,-5.332999999999999,-1.569,0,0,,
2895,3.451,-8.471,-6.117999999999999,0,0,,
2896,0.314,-9.568999999999999,-7.059,0,0,,
2897,-1.255,-12.078,-2.667,0,0,,
2898,0.314,-11.922,-2.353,0,0,,
2899,2.039,-9.882,-2.51,0,0,,
2900,1.569,-9.097999999999999,-4.078,0,0,,
2901,0.314,-8.314,-4.5489999999999995,0,0,,
2902,0.941,-8.471,-4.706,0,0,,
2903,-2.039,-8.941,-3.451,0,0,,
2904,-0.941,-9.097999999999999,-2.824,0,0,,
2905,0.784,-9.882,-1.882,0,0,,
2906,2.51,-10.196,-2.353,0,0,,
2907,2.51,-10.196,-2.1959999999999997,0,0,,
2908,1.569,-10.51,-2.51,0,0,,
2909,1.725,-10.353,-1.569,0,0,,
2910,1.412,-9.725,-1.725,0,0,,
2911,1.0979999999999999,-8.314,-2.824,0,0,,
2912,0.941,-8.627,-2.824,0,0,,
2913,2.353,-9.412,-2.51,0,0,,
2914,2.667,-8.783999999999999,-3.137,0,0,,
2915,2.353,-9.255,-2.98,0,0,,
2916,1.725,-9.568999999999999,-2.667,0,0,,
2917,2.51,-9.725,-1.725,0,0,,
2918,1.882,-9.255,-2.353,0,0,,
2919,1.255,-8.471,-3.2939999999999996,0,0,,
2920,0.784,-8.941,-2.353,0,0,,
2921,1.725,-9.255,-2.667,0,0,,
2922,1.0979999999999999,-9.097999999999999,-3.451,0,0,,
2923,0.784,-9.097999999999999,-3.451,0,0,,
2924,-0.157,-9.097999999999999,-3.2939999999999996,0,0,,
2925,0.47100000000000003,-9.255,-2.51,0,0,,
2926,0.157,-8.783999999999999,-2.98,0,0,,
2927,-0.627,-8.941,-3.608,0,0,,
2928,-0.941,-9.568999999999999,-2.98,0,0,,
2929,0.0,-10.039,-3.451,0,0,,
2930,-0.314,-9.568999999999999,-4.078,0,0,,
2931,-1.569,-9.412,-3.9219999999999997,0,0,,
2932,-1.725,-9.725,-3.608,0,0,,
2933,-0.784,-9.725,-3.608,0,0,,
2934,-0.627,-9.412,-3.9219999999999997,0,0,,
2935,-1.412,-9.412,-4.5489999999999995,0,0,,
2936,-0.784,-9.725,-3.2939999999999996,0,0,,
2937,0.314,-9.568999999999999,-4.863,0,0,,
2938,-1.725,-10.353,-2.98,0,0,,
2939,-2.824,-10.039,-2.51,0,0,,
2940,-1.0979999999999999,-9.882,-2.667,0,0,,
2941,-0.314,-9.725,-2.1959999999999997,0,0,,
2942,-1.0979999999999999,-9.568999999999999,-2.98,0,0,,
2943,-1.255,-10.039,-3.137,0,0,,
2944,-1.412,-10.51,-2.98,0,0,,
2945,-0.784,-10.353,-4.235,0,0,,
2946,-1.412,-10.51,-4.5489999999999995,0,0,,
2947,-1.412,-10.51,-4.863,0,0,,
2948,-1.0979999999999999,-10.51,-4.078,0,0,,
2949,-0.941,-9.882,-4.5489999999999995,0,0,,
2950,-1.0979999999999999,-10.196,-3.9219999999999997,0,0,,
2951,-2.1959999999999997,-10.353,-4.235,0,0,,
2952,-1.569,-11.137,-3.608,0,0,,
2953,-1.569,-11.137,-4.078,0,0,,
2954,-2.039,-11.294,-4.5489999999999995,0,0,,
2955,-2.51,-11.137,-4.863,0,0,,
2956,-1.569,-11.922,-3.9219999999999997,0,0,,
2957,-1.882,-11.765,-4.235,0,0,,
2958,-2.039,-12.235,-3.137,0,0,,
2959,-2.1959999999999997,-12.549000000000001,-2.667,0,0,,
2960,-0.627,-13.02,-1.725,0,0,,
2961,-0.941,-13.02,-1.725,0,0,,
2962,-1.0979999999999999,-13.333,-2.353,0,0,,
2963,-0.941,-14.588,-2.1959999999999997,0,0,,
2964,-0.784,-14.588,-2.51,0,0,,
2965,-0.784,-15.059000000000001,-2.353,0,0,,
2966,-0.941,-15.373,-2.51,0,0,,
2967,-1.882,-15.529000000000002,-2.98,0,0,,
2968,-1.412,-15.843,-4.706,0,0,,
2969,-1.0979999999999999,-16.0,-4.3919999999999995,0,0,,
2970,-0.314,-17.412,-3.608,0,1,,-30.0
2971,0.784,-17.412,-4.706,0,0,,
2972,5.02,-16.784000000000002,-6.587999999999999,0,0,,
2973,5.803999999999999,-16.314,-6.431,0,0,,
2974,4.863,-15.686,-5.176,0,0,,
2975,4.706,-14.431,-5.176,0,0,,
2976,4.3919999999999995,-13.175999999999998,-7.216,0,0,,
2977,-1.569,-11.450999999999999,-7.059,0,0,,
2978,-3.451,-9.568999999999999,-8.157,0,0,,
2979,-2.039,-5.803999999999999,-7.372999999999999,0,0,,
2980,-2.667,-4.235,-5.803999999999999,0,0,,
2981,-3.451,-5.332999999999999,-5.176,0,0,,
2982,-2.039,-6.117999999999999,-4.3919999999999995,0,0,,
2983,3.451,-5.961,-1.725,0,0,,
2984,5.49,-3.608,0.627,0,0,,
2985,5.176,-3.137,0.941,0,0,,
2986,4.078,-3.2939999999999996,0.784,0,0,,
2987,3.137,-3.608,0.47100000000000003,0,0,,
2988,1.569,-2.824,0.627,0,0,,
2989,1.0979999999999999,-2.51,0.627,0,0,,
2990,0.314,-2.98,0.47100000000000003,0,0,,
2991,0.0,-3.451,0.47100000000000003,0,0,,
2992,-0.314,-4.3919999999999995,0.47100000000000003,0,0,,
2993,0.157,-4.706,0.314,0,0,,
2994,0.0,-5.02,0.47100000000000003,0,0,,
2995,0.627,-5.49,0.47100000000000003,0,0,,
2996,0.47100000000000003,-5.961,0.627,0,0,,
2997,0.157,-6.431,0.157,0,0,,
2998,0.0,-6.745,0.314,0,0,,
2999,-0.157,-7.686,-0.314,0,0,,
3000,-0.314,-8.471,-0.784,0,0,,
3001,-0.314,-9.097999999999999,-1.0979999999999999,0,0,,
3002,-1.882,-10.039,-2.353,0,0,,
3003,-2.51,-10.51,-2.667,0,0,,
3004,-2.98,-12.078,-2.98,0,0,,
3005,-3.608,-12.549000000000001,-2.98,0,0,,
3006,-4.078,-13.804,-2.667,0,0,,
3007,-4.078,-15.059000000000001,-2.667,0,0,,
3008,-6.117999999999999,-16.471,-4.078,0,0,,
3009,-10.667,-17.098,-6.431,0,0,,
3010,-10.98,-17.098,-6.431,0,0,,
3011,-11.765,-17.725,-7.216,0,0,,
3012,-13.02,-17.725,-6.745,0,0,,
3013,-15.059000000000001,-16.784000000000002,-9.725,0,0,,
3014,-15.216,-16.157,-10.51,0,0,,
